time(ms),ax,ay,az,gx,gy,gz
0,0.000000 0.000000 0.000000 0.000000 0.000000 0.000000
20,0.000000 0.000000 0.000000 0.000000 0.000000 0.000000
40,0.000000 0.000000 0.000000 0.000000 0.000000 0.000000
60,0.000000 0.000000 0.000000 0.000000 0.000000 0.000000
80,0.000000 0.000000 0.000000 0.000000 0.000000 0.000000
100,0.000000 0.000000 0.000000 0.000000 0.000000 0.000000
120,0.000000 0.000000 0.000000 0.000000 0.000000 0.000000
140,0.000000 0.000000 0.000000 0.000000 0.000000 0.000000
160,0.000000 0.000000 0.000000 0.000000 0.000000 0.000000
180,0.000000 0.000000 0.000000 0.000000 0.000000 0.000000
200,0.000000 0.000000 0.000000 0.000000 0.000000 0.000000
220,0.000000 0.000000 0.000000 0.000000 0.000000 0.000000
240,0.000000 0.000000 0.000000 0.000000 0.000000 0.000000
260,0.000000 0.000000 0.000000 0.000000 0.000000 0.000000
280,0.000000 0.000000 0.000000 0.000000 0.000000 0.000000
300,0.000000 0.000000 0.000000 0.000000 0.000000 0.000000
320,0.000000 0.000000 0.000000 0.000000 0.000000 0.000000
340,0.000000 0.000000 0.000000 0.000000 0.000000 0.000000
360,0.000000 0.000000 0.000000 0.000000 0.000000 0.000000
380,0.000000 0.000000 0.000000 0.000000 0.000000 0.000000
400,0.000000 0.000000 0.000000 0.000000 0.000000 0.000000
420,0.000000 0.000000 0.000000 0.000000 0.000000 0.000000
440,0.000000 0.000000 0.000000 0.000000 0.000000 0.000000
460,0.000000 0.000000 0.000000 0.000000 0.000000 0.000000
480,0.000000 0.000000 0.000000 0.000000 0.000000 0.000000
500,0.000000 0.000000 0.000000 0.000000 0.000000 0.000000
520,0.000000 0.000000 0.000000 0.000000 0.000000 0.000000
540,0.000000 0.000000 0.000000 0.000000 0.000000 0.000000
560,0.000000 0.000000 0.000000 0.000000 0.000000 0.000000
580,0.000000 0.000000 0.000000 0.000000 0.000000 0.000000
600,0.000000 0.000000 0.000000 0.000000 0.000000 0.000000
620,0.000000 0.000000 0.000000 0.000000 0.000000 0.000000
640,0.000000 0.000000 0.000000 0.000000 0.000000 0.000000
660,0.000000 0.000000 0.000000 0.000000 0.000000 0.000000
680,0.000000 0.000000 0.000000 0.000000 0.000000 0.000000
700,0.000000 0.000000 0.000000 0.000000 0.000000 0.000000
720,0.000000 0.000000 0.000000 0.000000 0.000000 0.000000
740,-0.745581 -0.001293 -8.528068 -0.028362 -0.056178 -0.029452
760,-0.845997 -0.039348 -8.499322 -0.019090 -0.055087 -0.028362
780,-0.840955 -0.015140 -8.483734 -0.023453 -0.053451 -0.029452
800,-0.853380 -0.040086 -8.530229 -0.032180 -0.061632 -0.014726
820,-0.865397 -0.028358 -8.503417 -0.023998 -0.058905 -0.015817
840,-0.851514 -0.039899 -8.517113 -0.029998 -0.053996 -0.032180
860,-0.824268 -0.004852 -8.503613 -0.031089 -0.056178 -0.039270
880,-0.832318 -0.018586 -8.521657 -0.023453 -0.054542 -0.018544
900,-0.846052 -0.054437 -8.497172 -0.024544 -0.058359 -0.028362
920,-0.840961 0.027957 -8.518212 -0.045815 -0.061087 -0.040361
940,-0.870619 -0.048274 -8.497475 -0.037088 -0.058905 -0.022907
960,-0.858501 -0.016895 -8.496263 -0.026725 -0.056178 -0.027816
980,-0.844360 0.003913 -8.548720 -0.035997 -0.057269 -0.043088
1000,-0.840791 -0.017279 -8.524659 -0.023453 -0.057269 -0.029998
1020,-0.859828 0.000212 -8.500705 -0.027816 -0.061087 -0.019635
1040,-0.855267 -0.010107 -8.523952 -0.026180 -0.056723 -0.025635
1060,-0.861276 -0.034411 -8.500850 -0.027816 -0.056723 -0.028362
1080,-0.840328 0.066807 -8.554781 -0.039815 -0.057269 -0.046360
1100,-0.842543 0.004095 -8.514060 -0.022362 -0.054542 -0.018544
1120,-0.872932 -0.042041 -8.512790 -0.024544 -0.056178 -0.015817
1140,-0.869507 0.042341 -8.538305 -0.037088 -0.057269 -0.034361
1160,-0.882093 -0.019254 -8.522326 -0.024544 -0.055632 -0.021817
1180,-0.872578 0.020485 -8.527839 -0.030543 -0.059996 -0.029452
1200,-0.878091 0.015624 -8.515460 -0.026180 -0.057814 -0.030543
1220,-0.919584 0.054572 -8.517455 -0.040361 -0.061632 -0.031089
1240,-0.844004 0.016878 -8.505588 -0.025089 -0.055632 -0.030543
1260,-0.860149 0.064825 -8.554608 -0.041452 -0.063814 -0.033270
1280,-0.848835 0.014240 -8.503916 -0.025089 -0.061087 -0.029998
1300,-0.877871 0.035040 -8.521903 -0.024544 -0.058359 -0.023998
1320,-0.865691 0.031948 -8.524995 -0.033270 -0.055632 -0.033816
1340,-0.862318 0.043060 -8.541896 -0.029452 -0.055632 -0.021817
1360,-0.872755 0.050635 -8.521392 -0.015817 -0.057269 -0.012545
1380,-0.845786 0.040403 -8.529469 -0.022362 -0.059450 -0.017453
1400,-0.862482 0.025804 -8.531138 -0.021271 -0.059996 -0.022362
1420,-0.872772 0.042014 -8.523548 -0.027271 -0.055632 -0.030543
1440,-0.875955 0.046006 -8.526021 -0.032725 -0.058905 -0.032180
1460,-0.852570 0.069893 -8.521528 -0.023998 -0.057269 -0.020726
1480,-0.871780 0.037804 -8.527759 -0.022362 -0.056178 -0.013090
1500,-0.875856 0.035241 -8.493689 -0.022907 -0.055632 -0.023453
1520,-0.878419 0.039295 -8.517648 -0.031634 -0.058359 -0.026725
1540,-0.854971 0.076117 -8.517458 -0.022362 -0.054542 -0.030543
1560,-0.882795 0.032393 -8.528860 -0.024544 -0.057814 -0.015272
1580,-0.896351 0.035347 -8.543145 -0.031634 -0.050178 -0.007636
1600,-0.884778 0.055898 -8.503200 -0.028362 -0.056723 -0.009272
1620,-0.868537 0.104929 -8.548983 -0.032725 -0.055087 -0.028362
1640,-0.873377 0.072122 -8.510679 -0.019090 -0.050724 -0.018544
1660,-0.878171 0.069488 -8.504694 -0.020180 -0.057269 -0.008181
1680,-0.919592 -0.031623 -8.480824 -0.016908 -0.052360 -0.010908
1700,-0.863399 0.109752 -8.542005 -0.028362 -0.056723 -0.033270
1720,-0.859934 0.148886 -8.541657 -0.032180 -0.057814 -0.034361
1740,-0.881136 0.067036 -8.526539 -0.011999 -0.050724 -0.011454
1760,-0.889721 0.059713 -8.512314 -0.029452 -0.055632 -0.028907
1780,-0.879805 0.086563 -8.535026 -0.019635 -0.058359 -0.011999
1800,-0.876659 0.084723 -8.515317 -0.009817 -0.051814 -0.008181
1820,-0.867725 0.113629 -8.538127 -0.025635 -0.051814 -0.019635
1840,-0.886225 0.083766 -8.518429 -0.027271 -0.055632 -0.019635
1860,-0.881610 0.079918 -8.507193 -0.021271 -0.051269 -0.013635
1880,-0.883304 0.088368 -8.518137 -0.025635 -0.055632 -0.014726
1900,-0.879163 0.108176 -8.524187 -0.021271 -0.051269 -0.013090
1920,-0.883059 0.099167 -8.500874 -0.017999 -0.054542 -0.011454
1940,-0.876984 0.086845 -8.521814 -0.022362 -0.056178 -0.006000
1960,-0.878531 0.103929 -8.519814 -0.015272 -0.053996 -0.004909
1980,-0.891615 0.094001 -8.525433 -0.017453 -0.055632 -0.002182
2000,-0.882149 0.079864 -8.500782 -0.014726 -0.053996 -0.006545
2020,-0.993255 0.159257 -8.492499 -0.027816 -0.057814 -0.014726
2040,-0.763022 0.076693 -8.538431 -0.043633 -0.062177 -0.058359
2060,-0.918852 0.119291 -8.497988 -0.026180 -0.056178 -0.016362
2080,-0.751272 0.084332 -8.507089 -0.041452 -0.061087 -0.033816
2100,-0.857341 0.118977 -8.530624 -0.029452 -0.056723 -0.011454
2120,-0.885187 0.124812 -8.507550 -0.012545 -0.051814 -0.003818
2140,-0.903055 0.127335 -8.545970 -0.014181 -0.051269 -0.005454
2160,-0.902687 0.129527 -8.528694 -0.020180 -0.052360 -0.007090
2180,-0.900495 0.136211 -8.519855 -0.015817 -0.053996 -0.012545
2200,-0.889502 0.130845 -8.527376 -0.017453 -0.052360 -0.014726
2220,-0.890558 0.135050 -8.523171 -0.018544 -0.051814 -0.016908
2240,-0.875579 0.121463 -8.558307 -0.034361 -0.056723 -0.030543
2260,-0.891320 0.128509 -8.508163 -0.019090 -0.055087 -0.013635
2280,-0.918752 0.143004 -8.519526 -0.017999 -0.053451 -0.013090
2300,-0.891328 0.156521 -8.529714 -0.022907 -0.050724 -0.026725
2320,-0.849798 0.147745 -8.510476 -0.020726 -0.055632 -0.016362
2340,-0.901671 0.146867 -8.543676 -0.017453 -0.054542 -0.005454
2360,-0.874536 0.143116 -8.543118 -0.014181 -0.054542 -0.012545
2380,-0.886906 0.137570 -8.520652 -0.010908 -0.050724 -0.014726
2400,-0.898917 0.136368 -8.519698 -0.014726 -0.052360 -0.015817
2420,-0.846247 0.133016 -8.546754 -0.024544 -0.056178 -0.017999
2440,-0.937949 0.197111 -8.489123 -0.027271 -0.054542 -0.011454
2460,-0.977287 0.130686 -8.566322 -0.044724 -0.057814 -0.028907
2480,-0.810987 0.123613 -8.521679 -0.017999 -0.055632 -0.011454
2500,-0.908564 0.152643 -8.524972 -0.013635 -0.055632 -0.002727
2520,-0.898928 0.144987 -8.534783 -0.017453 -0.055632 -0.012545
2540,-1.025101 0.188396 -8.519387 -0.024544 -0.056178 -0.016908
2560,-0.742503 0.128306 -8.516986 -0.031634 -0.053451 -0.010363
2580,-0.878012 0.170782 -8.526227 -0.019635 -0.050178 -0.007090
2600,-0.878634 0.162100 -8.526289 -0.010363 -0.049633 -0.000545
2620,-0.898090 0.147225 -8.515306 -0.014181 -0.046360 -0.003818
2640,-0.912965 0.160822 -8.514638 -0.016362 -0.050724 -0.006000
2660,-0.895059 0.162613 -8.549480 -0.034907 -0.056178 -0.034907
2680,-0.882494 0.166024 -8.518056 -0.018544 -0.050724 -0.010363
2700,-0.887702 0.174123 -8.548744 -0.015817 -0.052360 -0.002182
2720,-0.909771 0.152522 -8.544487 -0.015272 -0.051269 -0.005454
2740,-0.907668 0.165661 -8.527038 -0.013635 -0.053996 -0.005454
2760,-0.931162 0.169777 -8.533696 -0.023453 -0.051269 -0.013635
2780,-0.866710 0.161138 -8.527251 -0.025635 -0.056178 -0.022362
2800,-0.950769 0.180745 -8.531347 -0.019635 -0.052905 -0.010908
2820,-0.840658 0.168053 -8.533266 -0.029452 -0.056723 -0.022907
2840,-0.894293 0.175618 -8.532165 -0.011999 -0.051269 -0.002727
2860,-0.895346 0.169048 -8.527960 -0.016908 -0.052905 -0.006000
2880,-0.912691 0.173779 -8.518920 -0.014181 -0.052360 -0.006000
2900,-0.976916 0.203989 -8.503795 -0.027816 -0.055632 -0.017999
2920,-0.966100 0.185677 -8.558739 -0.035452 -0.058359 -0.032725
2940,-0.900372 0.179320 -8.550012 -0.016362 -0.052905 -0.010908
2960,-0.850702 0.173513 -8.553664 -0.029452 -0.051814 -0.017453
2980,-0.847890 0.167329 -8.527524 -0.031634 -0.054542 -0.021271
3000,-0.918719 0.199034 -8.504439 -0.029452 -0.056723 -0.007090
3020,-0.880550 0.176993 -8.543719 -0.028362 -0.052905 -0.026725
3040,-0.827171 0.186640 -8.529762 -0.019635 -0.052905 -0.020726
3060,-0.862776 0.200319 -8.520393 -0.019635 -0.061632 -0.014181
3080,-0.831859 0.177552 -8.523767 -0.022362 -0.060541 -0.018544
3100,-0.936510 0.205874 -8.519148 -0.017999 -0.055087 -0.008181
3120,-0.888794 0.191252 -8.544544 -0.010908 -0.043633 -0.003272
3140,-0.929274 0.208753 -8.516269 -0.016908 -0.054542 -0.005454
3160,-0.745849 0.175379 -8.521630 -0.023453 -0.050178 -0.011999
3180,-0.876192 0.209751 -8.508806 -0.011999 -0.051814 -0.003818
3200,-0.895691 0.205646 -8.545234 -0.011999 -0.053451 -0.004363
3220,-0.893331 0.201573 -8.504055 -0.017999 -0.056723 -0.006000
3240,-0.901715 0.202889 -8.517823 -0.019090 -0.060541 -0.006000
3260,-0.896089 0.209916 -8.566822 -0.020180 -0.060541 -0.007636
3280,-0.904145 0.204801 -8.522376 -0.015272 -0.055087 -0.010908
3300,-0.894177 0.216572 -8.525688 -0.021817 -0.053451 -0.011999
3320,-0.908264 0.215164 -8.512013 -0.020726 -0.056178 -0.012545
3340,-0.888124 0.202093 -8.533703 -0.020726 -0.057814 -0.010908
3360,-0.905504 0.215440 -8.528976 -0.014726 -0.053451 -0.005454
3380,-0.905087 0.211171 -8.531089 -0.015272 -0.057269 -0.007636
3400,-0.894271 0.216563 -8.542936 -0.019090 -0.057269 -0.007090
3420,-0.895344 0.220765 -8.506412 -0.011999 -0.055087 -0.005454
3440,-0.888987 0.217091 -8.535944 -0.014726 -0.052905 -0.008727
3460,-0.912055 0.221249 -8.540405 -0.009817 -0.054542 -0.001636
3480,-0.888503 0.212830 -8.550980 -0.009817 -0.052360 -0.004909
3500,-0.903387 0.222116 -8.515835 -0.010363 -0.055087 -0.004363
3520,-0.896256 0.218519 -8.525896 -0.015817 -0.059450 -0.003272
3540,-0.897698 0.229149 -8.545434 -0.014181 -0.053996 -0.003818
3560,-0.943094 0.220300 -8.513341 -0.017999 -0.058359 -0.008181
3580,-0.882988 0.209072 -8.561202 -0.036543 -0.059996 -0.039270
3600,-0.904990 0.217646 -8.552629 -0.007090 -0.047997 0.000000
3620,-0.898571 0.229062 -8.556296 -0.008727 -0.051814 -0.000545
3640,-0.902239 0.222231 -8.535114 -0.007636 -0.052360 -0.001636
3660,-0.900451 0.226719 -8.532781 -0.011454 -0.053451 -0.001636
3680,-0.911046 0.221350 -8.533840 -0.009817 -0.055632 -0.001636
3700,-0.907796 0.215210 -8.518431 -0.014181 -0.054542 -0.007090
3720,-0.901006 0.228818 -8.513442 -0.009817 -0.049633 -0.009272
3740,-0.904637 0.232765 -8.526734 -0.008727 -0.049633 -0.004909
3760,-0.913620 0.223247 -8.534098 -0.011454 -0.051814 -0.005454
3780,-0.897279 0.233501 -8.515224 -0.011999 -0.051814 -0.004363
3800,-0.906419 0.234742 -8.526913 -0.011999 -0.050724 -0.006000
3820,-0.928882 0.245425 -8.524849 -0.016362 -0.047997 -0.010363
3840,-0.913889 0.233995 -8.536279 -0.019090 -0.051814 -0.015272
3860,-0.903771 0.235007 -8.515874 -0.006545 -0.042542 -0.000545
3880,-0.904914 0.232737 -8.528917 -0.009272 -0.050724 -0.005454
3900,-0.905028 0.232726 -8.552632 -0.016362 -0.049633 -0.004363
3920,-0.902884 0.222166 -8.535178 -0.020726 -0.058359 -0.007636
3940,-0.900515 0.233177 -8.537097 -0.021271 -0.056178 -0.009272
3960,-0.911053 0.240743 -8.529531 -0.019090 -0.051814 -0.010363
3980,-0.875474 0.235681 -8.536747 -0.018544 -0.050724 -0.011454
4000,-0.902084 0.226556 -8.524324 -0.014181 -0.048542 -0.004909
4020,-0.904745 0.245683 -8.535365 -0.011999 -0.050724 -0.004363
4040,-1.036457 0.258370 -8.535606 -0.029998 -0.055087 -0.022907
4060,-0.868620 0.236367 -8.536062 -0.022907 -0.056178 -0.041452
4080,-0.899244 0.248388 -8.517575 -0.007636 -0.050178 -0.004909
4100,-0.902306 0.245927 -8.526502 -0.011999 -0.052360 -0.001091
4120,-0.904767 0.234907 -8.526748 -0.003272 -0.045815 -0.001636
4140,-0.911478 0.238546 -8.523108 -0.011454 -0.050724 -0.006545
4160,-0.907839 0.238909 -8.535674 -0.014726 -0.053451 -0.006000
4180,-0.911785 0.234205 -8.529604 -0.011454 -0.050178 -0.004363
4200,-0.905715 0.245586 -8.526842 -0.013635 -0.052905 -0.003272
4220,-0.902953 0.239398 -8.533031 -0.009817 -0.052360 -0.006545
4240,-0.894058 0.240288 -8.534296 -0.011454 -0.051814 -0.007636
4260,-0.899633 0.233266 -8.517614 -0.014181 -0.051269 -0.003818
4280,-0.908809 0.247432 -8.531462 -0.007636 -0.049087 -0.004909
4300,-0.896798 0.246478 -8.534570 -0.009817 -0.050178 -0.011999
4320,-0.893442 0.236039 -8.525615 -0.007636 -0.047451 -0.011999
4340,-0.895261 0.233703 -8.540881 -0.012545 -0.049633 -0.004909
4360,-0.906217 0.239072 -8.529047 -0.011999 -0.053451 -0.001636
4380,-0.907313 0.249736 -8.537776 -0.010363 -0.049087 -0.004363
4400,-0.909577 0.249510 -8.542313 -0.011454 -0.053996 -0.003818
4420,-0.929198 0.243238 -8.533501 -0.014181 -0.056178 -0.003272
4440,-0.978567 0.253385 -8.549212 -0.012545 -0.052905 -0.007090
4460,-0.858522 0.230912 -8.530743 -0.006545 -0.053996 -0.012545
4480,-0.898234 0.239870 -8.536868 -0.003818 -0.047451 -0.002182
4500,-0.897895 0.237749 -8.532525 -0.007090 -0.061087 -0.002727
4520,-0.910791 0.247234 -8.518730 -0.003818 -0.049633 -0.001091
4540,-0.914235 0.238270 -8.527695 -0.009272 -0.053451 -0.003272
4560,-0.908115 0.232417 -8.531392 -0.006000 -0.050724 -0.002182
4580,-0.901038 0.237435 -8.532839 -0.007090 -0.056178 -0.002727
4600,-0.913260 0.240522 -8.527596 -0.006000 -0.054542 -0.004363
4620,-0.910172 0.242986 -8.535908 -0.006000 -0.050178 -0.004363
4640,-0.905554 0.241293 -8.544065 -0.006545 -0.045815 -0.002727
4660,-0.898627 0.248450 -8.498120 -0.001636 -0.043088 -0.002182
4680,-0.906554 0.239038 -8.570024 -0.007090 -0.052360 -0.002727
4700,-0.903037 0.237235 -8.554587 -0.006545 -0.052905 -0.002182
4720,-0.913460 0.231883 -8.529772 -0.006000 -0.051814 -0.003272
4740,-0.903728 0.243630 -8.522334 -0.006000 -0.053996 -0.002727
4760,-0.913529 0.238340 -8.521159 -0.010363 -0.054542 -0.006545
4780,-0.890805 0.242768 -8.557674 -0.005454 -0.051269 -0.009272
4800,-0.905772 0.236961 -8.541932 -0.010363 -0.050178 -0.003818
4820,-0.915888 0.229485 -8.527860 -0.007636 -0.050178 -0.004909
4840,-0.899661 0.239727 -8.528392 -0.007636 -0.051814 -0.003818
4860,-0.915277 0.238166 -8.538572 -0.007636 -0.049633 -0.004909
4880,-0.897445 0.242104 -8.536790 -0.009272 -0.050724 -0.006545
4900,-0.902126 0.237326 -8.539412 -0.007636 -0.048542 -0.003818
4920,-0.902594 0.230814 -8.532995 -0.010363 -0.049087 -0.002727
4940,-0.891867 0.240507 -8.536232 -0.007636 -0.047997 -0.002727
4960,-0.899413 0.246217 -8.517592 -0.009272 -0.050724 -0.003818
4980,-0.902323 0.245926 -8.537277 -0.008727 -0.050724 -0.003818
5000,-0.909078 0.225856 -8.537953 -0.009272 -0.051269 -0.003818
5020,-0.909754 0.227944 -8.540175 -0.007090 -0.051269 -0.001091
5040,-0.903357 0.230738 -8.526607 -0.009817 -0.049087 -0.004363
5060,-0.896253 0.242223 -8.517277 -0.009272 -0.050724 -0.003272
5080,-0.906317 0.230442 -8.539831 -0.010363 -0.052905 -0.004909
5100,-0.890084 0.232065 -8.525279 -0.007090 -0.050178 -0.007090
5120,-0.897080 0.229211 -8.536753 -0.006545 -0.050724 -0.002727
5140,-0.904245 0.239269 -8.533160 -0.009817 -0.050178 -0.002727
5160,-0.902806 0.237258 -8.513622 -0.008181 -0.049633 -0.002727
5180,-0.902662 0.239427 -8.524383 -0.006000 -0.050724 -0.002727
5200,-0.896183 0.231456 -8.532353 -0.007636 -0.049633 -0.000545
5220,-0.902000 0.237338 -8.515697 -0.008181 -0.049087 -0.003818
5240,-0.898272 0.239866 -8.539027 -0.010908 -0.053451 -0.002182
5260,-0.906519 0.234732 -8.526922 -0.012545 -0.048542 -0.002182
5280,-0.896569 0.231417 -8.534547 -0.007090 -0.050724 0.000000
5300,-0.910658 0.221389 -8.542420 -0.004909 -0.047997 -0.003818
5320,-0.903447 0.239349 -8.543855 -0.007636 -0.048542 -0.001636
5340,-0.900572 0.237481 -8.537102 -0.005454 -0.045269 -0.001636
5360,-0.898129 0.239880 -8.513155 -0.007090 -0.052360 -0.003818
5380,-0.902195 0.239474 -8.556658 -0.009817 -0.051814 -0.003272
5400,-0.909066 0.245251 -8.542261 -0.009272 -0.053451 -0.002182
5420,-0.903288 0.230745 -8.541683 -0.006000 -0.050178 0.000000
5440,-0.898401 0.231234 -8.543349 -0.006000 -0.046906 -0.002182
5460,-0.902222 0.233007 -8.532957 -0.007090 -0.051269 -0.000545
5480,-0.896139 0.237925 -8.525885 -0.007090 -0.049633 -0.001636
5500,-0.906305 0.239063 -8.537676 -0.008727 -0.049633 -0.004363
5520,-0.896548 0.237884 -8.528080 -0.005454 -0.047451 -0.003818
5540,-0.910656 0.238628 -8.561814 -0.007636 -0.052360 -0.001091
5560,-0.909912 0.240857 -8.535881 -0.008727 -0.049633 0.000000
5580,-0.905528 0.230521 -8.511740 -0.008727 -0.050178 -0.001636
5600,-0.902934 0.239400 -8.530874 -0.009817 -0.053996 0.000545
5620,-0.904830 0.230591 -8.518134 -0.006000 -0.052360 -0.001091
5640,-0.900710 0.239622 -8.522032 -0.007090 -0.050178 -0.003272
5660,-0.900298 0.243973 -8.532765 -0.006000 -0.052905 -0.004363
5680,-0.911031 0.232126 -8.525219 -0.006000 -0.051269 -0.003818
5700,-0.897020 0.233527 -8.543212 -0.004909 -0.050724 -0.008181
5720,-0.902084 0.230866 -8.537253 -0.011999 -0.058359 -0.002182
5740,-0.909055 0.228014 -8.525022 -0.008181 -0.054542 -0.003272
5760,-0.905442 0.243459 -8.535435 -0.008727 -0.055087 -0.002182
5780,-0.913700 0.240478 -8.536261 -0.009272 -0.055632 -0.001636
5800,-0.908061 0.230268 -8.527077 -0.012545 -0.051814 -0.001091
5820,-0.903188 0.235065 -8.513660 -0.009817 -0.050178 -0.001636
5840,-0.900546 0.237484 -8.537100 -0.005454 -0.050724 -0.003818
5860,-0.911056 0.236433 -8.529531 -0.006000 -0.050178 -0.003272
5880,-0.909952 0.236543 -8.559588 -0.007090 -0.047997 -0.002182
5900,-0.907687 0.241080 -8.520575 -0.006545 -0.047451 -0.001091
5920,-0.903150 0.230759 -8.513657 -0.010363 -0.050178 -0.002182
5940,-0.915626 0.225202 -8.517059 -0.010363 -0.053451 -0.003272
5960,-0.901789 0.226585 -8.550153 -0.008181 -0.049087 0.000545
5980,-0.909025 0.236636 -8.561651 -0.010363 -0.051269 -0.001091
6000,-0.907594 0.236779 -8.533495 -0.007090 -0.051269 -0.002182
6020,-0.913915 0.229682 -8.527662 -0.007636 -0.048542 -0.002182
6040,-0.871450 0.218845 -8.560048 -0.009817 -0.058905 -0.022907
6060,-0.901682 0.230906 -8.547988 -0.007636 -0.050178 0.001091
6080,-0.898240 0.235560 -8.545488 -0.010363 -0.053996 -0.001091
6100,-0.893586 0.227406 -8.512700 -0.005454 -0.047451 -0.000545
6120,-0.903895 0.234994 -8.505112 -0.010908 -0.047997 -0.001636
6140,-0.915700 0.235968 -8.512756 -0.010363 -0.054542 -0.002727
6160,-0.903952 0.239298 -8.524511 -0.008727 -0.050178 -0.001636
6180,-0.913551 0.234029 -8.544865 -0.005454 -0.044724 -0.002182
6200,-0.897272 0.231347 -8.523843 -0.008727 -0.051814 -0.001091
6220,-0.897799 0.239913 -8.534670 -0.010363 -0.056723 -0.001636
6240,-0.906471 0.226117 -8.559240 -0.003818 -0.046906 -0.001636
6260,-0.903029 0.243700 -8.530884 -0.006545 -0.049633 -0.001091
6280,-0.900530 0.237486 -8.522014 -0.010908 -0.051269 -0.001091
6300,-0.902435 0.226521 -8.543753 -0.006545 -0.052905 -0.002182
6320,-0.909090 0.221546 -8.533645 -0.008727 -0.052360 0.000000
6340,-0.898981 0.233331 -8.545563 -0.008181 -0.048542 -0.000545
6360,-0.904435 0.237095 -8.552572 -0.010908 -0.053996 -0.002727
6380,-0.894206 0.238118 -8.517072 -0.007090 -0.046360 -0.001091
6400,-0.899647 0.241883 -8.537010 -0.007090 -0.048542 -0.002727
6420,-0.902346 0.230839 -8.541590 -0.010363 -0.050724 -0.003818
6440,-0.913391 0.225425 -8.525455 -0.009272 -0.051269 -0.007636
6460,-0.901566 0.215833 -8.539356 -0.006545 -0.050724 -0.013635
6480,-0.898229 0.231251 -8.532558 -0.007636 -0.050724 -0.001636
6500,-0.904359 0.232793 -8.520242 -0.008727 -0.053451 -0.002182
6520,-0.896353 0.240058 -8.517286 -0.009817 -0.055632 -0.001091
6540,-0.902017 0.239492 -8.522162 -0.007090 -0.046360 -0.001636
6560,-0.909048 0.236634 -8.518557 -0.010908 -0.048542 -0.002182
6580,-0.898977 0.226867 -8.519704 -0.006545 -0.049633 0.000000
6600,-0.904434 0.228476 -8.541799 -0.008727 -0.052360 -0.000545
6620,-0.902825 0.232946 -8.520089 -0.007636 -0.049633 0.001091
6640,-0.896200 0.235764 -8.543130 -0.009817 -0.052905 0.001636
6660,-0.904156 0.234968 -8.518067 -0.005454 -0.051814 -0.001636
6680,-0.902797 0.230794 -8.522241 -0.014181 -0.056723 -0.000545
6700,-0.898352 0.226929 -8.554119 -0.007636 -0.049633 -0.001091
6720,-0.904372 0.232792 -8.541792 -0.006545 -0.050178 -0.001636
6740,-0.898509 0.235533 -8.539051 -0.007090 -0.049633 -0.001091
6760,-0.915162 0.229558 -8.560110 -0.004909 -0.052360 -0.003272
6780,-0.901743 0.226590 -8.509206 -0.009272 -0.053996 -0.000545
6800,-0.902556 0.226509 -8.528681 -0.005454 -0.049087 -0.001636
6820,-0.889708 0.245032 -8.527396 -0.005454 -0.050724 0.000000
6840,-0.901352 0.239558 -8.532870 -0.006545 -0.050724 0.000000
6860,-0.911136 0.223496 -8.540314 -0.006000 -0.050724 -0.002182
6880,-0.912115 0.240637 -8.529637 -0.008727 -0.050178 -0.001091
6900,-0.901438 0.233085 -8.535034 -0.007636 -0.050178 -0.001091
6920,-0.913300 0.231899 -8.553459 -0.005454 -0.047997 -0.004363
6940,-0.903712 0.232858 -8.533107 -0.007636 -0.047997 -0.004909
6960,-0.898443 0.229075 -8.530425 -0.007636 -0.051814 -0.004363
6980,-0.906536 0.241195 -8.552783 -0.009817 -0.051269 -0.003272
7000,-0.903035 0.237235 -8.535193 -0.010908 -0.052905 -0.002182
7020,-0.896221 0.229297 -8.517273 -0.009817 -0.050178 -0.003272
7040,-0.899849 0.231089 -8.515481 -0.006545 -0.053451 -0.001636
7060,-0.904521 0.239241 -8.513794 -0.006000 -0.049087 0.000000
7080,-0.907143 0.217430 -8.542069 -0.009272 -0.051269 0.000000
7100,-0.898786 0.231195 -8.541233 -0.007636 -0.049087 0.000000
7120,-0.902260 0.230848 -8.530807 -0.007090 -0.053451 -0.001636
7140,-0.902608 0.239433 -8.537306 -0.009272 -0.052360 -0.001091
7160,-0.909107 0.225853 -8.525026 -0.007090 -0.049633 -0.001091
7180,-0.907602 0.236778 -8.531341 -0.005454 -0.050724 -0.001636
7200,-0.907452 0.238948 -8.522706 -0.003272 -0.045269 -0.001091
7220,-0.903127 0.248000 -8.513655 -0.007636 -0.047451 -0.002182
7240,-0.902694 0.241579 -8.541624 -0.008181 -0.053451 0.000000
7260,-0.915580 0.227361 -8.555842 -0.010363 -0.052905 -0.002182
7280,-0.906094 0.230464 -8.544119 -0.004363 -0.047451 -0.001636
7300,-0.905146 0.226250 -8.522475 -0.007636 -0.050724 -0.002727
7320,-0.909361 0.234448 -8.535827 -0.006545 -0.049633 -0.001091
7340,-0.905473 0.241301 -8.537592 -0.004909 -0.049633 0.000000
7360,-0.909393 0.243064 -8.520745 -0.010363 -0.051269 0.000000
7380,-0.901166 0.248196 -8.504839 -0.004909 -0.049087 -0.002182
7400,-0.889569 0.229962 -8.525228 -0.007090 -0.050178 -0.002182
7420,-0.901339 0.246024 -8.515631 -0.007090 -0.052905 -0.001636
7440,-0.906825 0.230391 -8.526954 -0.009272 -0.052905 -0.001636
7460,-0.898754 0.239818 -8.554159 -0.006000 -0.049633 -0.001636
7480,-0.902257 0.233003 -8.517877 -0.006545 -0.050724 -0.001091
7500,-0.906917 0.219608 -8.542047 -0.005454 -0.050724 -0.002182
7520,-0.913848 0.227534 -8.534121 -0.009272 -0.052905 -0.001091
7540,-0.908076 0.236731 -8.544317 -0.007636 -0.049633 0.000545
7560,-0.907499 0.219550 -8.559343 -0.008727 -0.051269 0.000000
7580,-0.909596 0.230114 -8.525076 -0.009817 -0.048542 0.000000
7600,-0.899032 0.233326 -8.515400 -0.010908 -0.047451 -0.001636
7620,-0.904440 0.232785 -8.539644 -0.007636 -0.050178 -0.002182
7640,-0.911445 0.234239 -8.538190 -0.004909 -0.049633 -0.001636
7660,-0.909991 0.234385 -8.535890 -0.010908 -0.051269 0.001091
7680,-0.899071 0.237631 -8.526177 -0.007090 -0.052360 -0.002182
7700,-0.930302 0.232353 -8.499133 -0.003272 -0.047997 -0.009817
7720,-0.892483 0.233980 -8.503970 -0.007636 -0.050178 -0.022362
7740,-0.908094 0.243194 -8.548629 -0.009817 -0.051814 0.000000
7760,-0.905346 0.237004 -8.526805 -0.006000 -0.047997 -0.001091
7780,-0.909381 0.240910 -8.503506 -0.007636 -0.049087 -0.001636
7800,-0.920559 0.239792 -8.552030 -0.008181 -0.055087 -0.000545
7820,-0.913057 0.234078 -8.549125 -0.008727 -0.049087 -0.001636
7840,-0.907997 0.228119 -8.542154 -0.006545 -0.049633 -0.001091
7860,-0.905336 0.239160 -8.567747 -0.008181 -0.051269 -0.002727
7880,-0.902915 0.228628 -8.535182 -0.005454 -0.047997 -0.001636
7900,-0.891899 0.231884 -8.510377 -0.005454 -0.053996 -0.002182
7920,-0.895107 0.240183 -8.521472 -0.008727 -0.050178 -0.001091
7940,-0.910512 0.230023 -8.533787 -0.007636 -0.051814 -0.001636
7960,-0.912052 0.225559 -8.525321 -0.008181 -0.055087 -0.001636
7980,-0.905742 0.224035 -8.516070 -0.003818 -0.047451 -0.001091
8000,-0.894336 0.233795 -8.534324 -0.005454 -0.049087 -0.001636
8020,-0.903970 0.247916 -8.520204 -0.008727 -0.052905 -0.001091
8040,-0.900624 0.241786 -8.528488 -0.005454 -0.048542 -0.001636
8060,-0.913218 0.234062 -8.521128 -0.004363 -0.049633 -0.002727
8080,-0.903703 0.235013 -8.530951 -0.004363 -0.046360 -0.001091
8100,-0.904907 0.221964 -8.520297 -0.008181 -0.052360 -0.003272
8120,-0.909337 0.227985 -8.518585 -0.006000 -0.048542 -0.001636
8140,-0.903315 0.235052 -8.526603 -0.007636 -0.051269 -0.000545
8160,-0.904868 0.241361 -8.518138 -0.008727 -0.050724 -0.001091
8180,-0.902868 0.235097 -8.528712 -0.006545 -0.047451 -0.001091
8200,-0.904823 0.234901 -8.533217 -0.008727 -0.050724 -0.001636
8220,-0.902864 0.230788 -8.515783 -0.003818 -0.046360 -0.000545
8240,-0.902668 0.230807 -8.543777 -0.005454 -0.049087 -0.000545
8260,-0.900494 0.235334 -8.554334 -0.007636 -0.050724 -0.000545
8280,-0.904586 0.239235 -8.554743 -0.009272 -0.050724 -0.001091
8300,-0.915769 0.229497 -8.555861 -0.007636 -0.049633 -0.001091
8320,-0.895339 0.235850 -8.530114 -0.005454 -0.046906 -0.001636
8340,-0.908380 0.230236 -8.531419 -0.006545 -0.049633 -0.001636
8360,-0.903220 0.228597 -8.537367 -0.007636 -0.052905 -0.001636
8380,-0.917788 0.229295 -8.549598 -0.004363 -0.049633 -0.002727
8400,-0.906315 0.236907 -8.520438 -0.005454 -0.046360 -0.002727
8420,-0.896549 0.235729 -8.532391 -0.006000 -0.048542 -0.001091
8440,-0.895572 0.229362 -8.538757 -0.011454 -0.051269 -0.003272
8460,-0.895474 0.209978 -8.558141 -0.004909 -0.048542 -0.002182
8480,-0.904084 0.226356 -8.537454 -0.008181 -0.051814 -0.002727
8500,-0.900635 0.233165 -8.515560 -0.008727 -0.049633 -0.003272
8520,-0.913219 0.234062 -8.525438 -0.004363 -0.049633 -0.003272
8540,-0.916633 0.220791 -8.534399 -0.006000 -0.050178 -0.002727
8560,-0.910509 0.236488 -8.557489 -0.009272 -0.051269 -0.001636
8580,-0.901278 0.233101 -8.545793 -0.006000 -0.051269 0.000000
8600,-0.891735 0.238365 -8.508205 -0.007636 -0.050724 -0.002182
8620,-0.901555 0.241693 -8.530736 -0.003272 -0.043633 -0.002182
8640,-0.896073 0.235776 -8.536653 -0.008727 -0.048542 -0.001636
8660,-0.901989 0.233030 -8.537244 -0.007090 -0.050178 0.000000
8680,-0.909045 0.240944 -8.514246 -0.006545 -0.048542 -0.000545
8700,-0.911906 0.232038 -8.523151 -0.007636 -0.052905 -0.002182
8720,-0.907882 0.234595 -8.542143 -0.007090 -0.046906 -0.000545
8740,-0.894550 0.240238 -8.521416 -0.008727 -0.049633 -0.002182
8760,-0.910456 0.225719 -8.542400 -0.007636 -0.050178 -0.003272
8780,-0.896963 0.227068 -8.553980 -0.004363 -0.050178 -0.000545
8800,-0.919317 0.237762 -8.560525 -0.007636 -0.051269 -0.001636
8820,-0.904313 0.232797 -8.518083 -0.008181 -0.049087 -0.004363
8840,-0.898503 0.226914 -8.545515 -0.008727 -0.049633 -0.004909
8860,-0.910851 0.238608 -8.499343 -0.003818 -0.052905 -0.003818
8880,-0.894847 0.246673 -8.519291 -0.008181 -0.047997 -0.002727
8900,-0.904021 0.237136 -8.515899 -0.001091 -0.047451 -0.002727
8920,-0.898474 0.235536 -8.558441 -0.011454 -0.053451 -0.003272
8940,-0.904384 0.230636 -8.537483 -0.005454 -0.047451 -0.003818
8960,-0.907130 0.230361 -8.524829 -0.005454 -0.047997 -0.002727
8980,-0.905249 0.221930 -8.537570 -0.009272 -0.050178 -0.001636
9000,-0.900752 0.224534 -8.537120 -0.011454 -0.051269 -0.001636
9020,-0.908921 0.230182 -8.533628 -0.011454 -0.053996 -0.001636
9040,-0.905429 0.243460 -8.526814 -0.011999 -0.051814 -0.003272
9060,-0.909389 0.232290 -8.494886 -0.007636 -0.053996 -0.001091
9080,-0.916250 0.235914 -8.564528 -0.009817 -0.054542 -0.001636
9100,-0.899697 0.231104 -8.539169 -0.011454 -0.054542 -0.002182
9120,-0.904506 0.230623 -8.526721 -0.008181 -0.049087 -0.000545
9140,-0.896368 0.235747 -8.530217 -0.004909 -0.048542 -0.001091
9160,-0.902018 0.230872 -8.513543 -0.006545 -0.050178 -0.002182
9180,-0.900429 0.235341 -8.537088 -0.007090 -0.051814 -0.002727
9200,-0.913199 0.231909 -8.544829 -0.007636 -0.049633 -0.001091
9220,-0.903701 0.247943 -8.518022 -0.005454 -0.050178 -0.003818
9240,-0.902752 0.232954 -8.524391 -0.007090 -0.050724 0.001091
9260,-0.891883 0.236195 -8.527614 -0.004363 -0.051814 -0.000545
9280,-0.895105 0.222944 -8.517162 -0.005454 -0.052905 -0.001636
9300,-0.899737 0.222481 -8.534863 -0.004909 -0.046906 -0.001091
9320,-0.908820 0.232347 -8.522843 -0.006545 -0.046906 -0.001091
9340,-0.903264 0.239367 -8.571849 -0.008181 -0.052905 -0.000545
9360,-0.902708 0.224339 -8.541626 -0.007090 -0.050724 -0.001636
9380,-0.904807 0.230593 -8.522442 -0.004363 -0.050178 -0.002182
9400,-0.898553 0.237683 -8.541210 -0.004909 -0.049633 -0.002727
9420,-0.900082 0.237530 -8.543518 -0.007636 -0.049633 -0.000545
9440,-0.904545 0.230619 -8.539655 -0.010363 -0.055087 -0.001636
9460,-0.909301 0.227989 -8.518581 -0.005454 -0.051269 -0.001091
9480,-0.911931 0.227726 -8.538239 -0.007090 -0.054542 -0.002182
9500,-0.910039 0.230070 -8.533739 -0.003818 -0.050178 -0.001091
9520,-0.903386 0.235045 -8.546003 -0.009272 -0.050724 -0.001091
9540,-0.900565 0.233172 -8.524173 -0.010908 -0.053451 -0.001091
9560,-0.895974 0.237941 -8.521559 -0.008727 -0.049633 -0.002182
9580,-0.901979 0.226566 -8.539398 -0.008181 -0.050178 -0.002182
9600,-0.909044 0.225860 -8.512092 -0.004909 -0.050178 -0.001636
9620,-0.903286 0.235055 -8.537374 -0.007636 -0.050178 0.000000
9640,-0.907020 0.234682 -8.529128 -0.003818 -0.047997 -0.001636
9660,-0.896619 0.235722 -8.538862 -0.004909 -0.050724 -0.001091
9680,-0.910663 0.227853 -8.512253 -0.004909 -0.052360 -0.001091
9700,-0.914222 0.231807 -8.519073 -0.009817 -0.052905 -0.002182
9720,-0.901649 0.237374 -8.541520 -0.008181 -0.050178 -0.002182
9740,-0.900392 0.226725 -8.530620 -0.009817 -0.052360 -0.001091
9760,-0.900266 0.231047 -8.550001 -0.004363 -0.047451 -0.001091
9780,-0.900253 0.218119 -8.545690 -0.011999 -0.056723 -0.002182
9800,-0.900252 0.233204 -8.519832 -0.005454 -0.051269 -0.000545
9820,-0.902407 0.228678 -8.526511 -0.011454 -0.055087 0.000000
9840,-0.911242 0.225640 -8.538169 -0.012545 -0.055087 -0.003818
9860,-0.907816 0.232447 -8.537827 -0.007636 -0.055632 -0.002182
9880,-0.916092 0.233774 -8.592525 -0.006545 -0.055632 -0.000545
9900,-0.897526 0.231321 -8.508784 -0.008181 -0.053996 -0.001091
9920,-0.899979 0.228921 -8.483171 -0.007636 -0.046906 -0.001091
9940,-0.906689 0.221786 -8.505391 -0.007636 -0.048542 -0.003818
9960,-0.909515 0.236587 -8.492744 -0.009272 -0.052905 -0.001091
9980,-0.896869 0.224922 -8.532422 -0.006000 -0.050178 0.000000
10000,-0.902068 0.237332 -8.537251 -0.008727 -0.055087 0.000545
10020,-0.898279 0.231246 -8.549802 -0.007090 -0.047451 -0.001636
10040,-0.897900 0.226974 -8.541144 -0.010908 -0.055632 -0.002182
10060,-0.904326 0.234951 -8.526704 -0.008727 -0.050724 -0.003272
10080,-0.911434 0.229931 -8.514485 -0.006545 -0.051269 -0.001636
10100,-0.905680 0.239125 -8.520374 -0.006545 -0.050178 -0.001636
10120,-0.896485 0.233580 -8.532384 -0.011999 -0.056723 -0.002182
10140,-0.902030 0.228716 -8.530784 -0.007090 -0.051269 -0.003272
10160,-0.911204 0.232108 -8.531701 -0.002182 -0.049087 -0.001636
10180,-0.907812 0.234602 -8.537827 -0.009817 -0.051269 -0.003272
10200,-0.862220 0.239162 -8.516028 -0.006545 -0.055087 -0.015817
10220,-0.909378 0.223672 -8.546602 -0.006545 -0.051814 -0.001091
10240,-0.894700 0.246688 -8.525741 -0.007090 -0.055087 -0.002727
10260,-0.906161 0.232613 -8.535506 -0.004909 -0.050724 -0.002182
10280,-0.900843 0.224525 -8.541439 -0.003818 -0.051814 -0.000545
10300,-0.926169 0.217683 -8.531042 -0.007636 -0.053451 -0.001091
10320,-0.887760 0.236608 -8.525046 -0.007636 -0.054542 -0.003272
10340,-0.909777 0.234406 -8.531558 -0.006000 -0.056178 -0.002727
10360,-0.916288 0.227290 -8.525744 -0.007090 -0.053451 -0.001091
10380,-0.886772 0.223777 -8.522793 -0.003818 -0.052905 -0.001091
10400,-0.907523 0.223857 -8.527023 -0.004909 -0.049087 -0.000545
10420,-0.885895 0.219555 -8.529170 -0.004363 -0.050724 -0.000545
10440,-0.898816 0.241967 -8.523997 -0.004909 -0.051269 -0.000545
10460,-0.908728 0.230201 -8.535763 -0.008181 -0.058905 -0.001636
10480,-0.892480 0.227516 -8.521209 -0.005454 -0.050724 -0.001636
10500,-0.908094 0.232419 -8.544319 -0.004909 -0.051814 -0.001091
10520,-0.903191 0.222135 -8.539519 -0.006000 -0.047451 0.000000
10540,-0.902701 0.217875 -8.541625 -0.008727 -0.059996 -0.001091
10560,-0.906961 0.223913 -8.529121 -0.004363 -0.048542 -0.000545
10580,-0.894458 0.231628 -8.521407 -0.006545 -0.050724 0.000000
10600,-0.906137 0.232615 -8.548433 -0.006000 -0.051269 -0.001091
10620,-0.894376 0.227327 -8.514935 -0.002182 -0.049087 -0.002727
10640,-0.891045 0.234124 -8.529685 -0.006545 -0.051269 -0.001636
10660,-0.912260 0.238467 -8.529652 -0.008727 -0.053996 0.000000
10680,-0.905763 0.230498 -8.509608 -0.006545 -0.050178 -0.000545
10700,-0.900803 0.235303 -8.511267 -0.004909 -0.051814 -0.003272
10720,-0.895997 0.229319 -8.532335 -0.007636 -0.049633 0.000545
10740,-0.904136 0.224196 -8.539614 -0.006545 -0.054542 -0.002182
10760,-0.902795 0.232949 -8.522241 -0.002727 -0.049633 -0.000545
10780,-0.902661 0.220033 -8.513608 -0.008181 -0.052905 -0.002727
10800,-1.092275 0.226930 -8.560582 -0.006000 -0.051269 -0.004363
10820,-0.820331 0.208873 -8.526923 -0.004363 -0.045269 -0.020180
10840,-0.887950 0.227969 -8.516446 -0.008727 -0.053996 -0.000545
10860,-0.892557 0.231818 -8.531991 -0.007090 -0.051269 -0.001091
10880,-0.901637 0.228755 -8.519970 -0.007636 -0.053996 -0.001636
10900,-0.904700 0.219830 -8.543980 -0.006545 -0.050724 -0.001091
10920,-0.900697 0.222385 -8.532805 -0.008181 -0.055632 -0.001091
10940,-0.906761 0.217469 -8.552805 -0.001636 -0.045815 -0.000545
10960,-0.900903 0.233138 -8.550064 -0.008181 -0.055087 -0.001091
10980,-0.902472 0.228672 -8.515743 -0.009817 -0.056178 -0.001636
11000,-0.902629 0.220037 -8.535153 -0.003818 -0.049633 -0.001636
11020,-0.900490 0.218096 -8.515546 -0.008727 -0.051814 -0.001091
11040,-0.902431 0.228676 -8.517895 -0.005454 -0.050178 -0.001636
11060,-0.904780 0.234906 -8.531058 -0.006545 -0.049087 -0.001091
11080,-0.900705 0.231003 -8.526341 -0.007636 -0.050178 0.000000
11100,-0.904607 0.232768 -8.526731 -0.010908 -0.056178 0.000545
11120,-0.902842 0.228635 -8.535174 -0.003818 -0.044724 -0.000545
11140,-0.896201 0.222834 -8.532355 -0.001636 -0.044724 0.000000
11160,-0.897692 0.220530 -8.521730 -0.006545 -0.053996 -0.001636
11180,-0.904306 0.230643 -8.550405 -0.008181 -0.051269 -0.001636
11200,-0.898502 0.226914 -8.530431 -0.009272 -0.056723 -0.000545
11220,-0.904387 0.228480 -8.526710 -0.004909 -0.052360 -0.000545
11240,-0.907130 0.221741 -8.539913 -0.008727 -0.055087 0.000545
11260,-0.903095 0.219990 -8.511497 -0.003818 -0.051814 0.000545
11280,-0.898381 0.224771 -8.530418 -0.003272 -0.046360 -0.001636
11300,-0.893600 0.233869 -8.527785 -0.007636 -0.053996 -0.000545
11320,-0.906051 0.226159 -8.539805 -0.007090 -0.051814 -0.000545
11340,-0.900832 0.226681 -8.545748 -0.010908 -0.052905 -0.001091
11360,-0.906775 0.221777 -8.548497 -0.006545 -0.050178 0.000000
11380,-0.898749 0.229044 -8.536920 -0.006000 -0.046906 -0.001636
11400,-0.897947 0.235589 -8.515291 -0.006000 -0.045815 -0.001091
11420,-0.906486 0.228270 -8.522610 -0.002182 -0.047451 -0.001091
11440,-0.898721 0.226892 -8.523988 -0.004363 -0.048542 -0.001636
11460,-0.904409 0.219859 -8.543950 -0.007090 -0.048542 -0.001091
11480,-0.896358 0.231438 -8.530216 -0.006545 -0.050724 -0.001091
11500,-0.897708 0.222684 -8.534661 -0.007636 -0.057269 -0.001636
11520,-0.897843 0.218360 -8.549759 -0.006000 -0.048542 -0.000545
11540,-0.908630 0.219437 -8.563766 -0.004909 -0.048542 0.000545
11560,-0.909709 0.227948 -8.527242 -0.006545 -0.050178 -0.001091
11580,-0.896888 0.244314 -8.525960 -0.005454 -0.046906 -0.001091
11600,-0.902070 0.228712 -8.545872 -0.006000 -0.049633 0.000545
11620,-0.909053 0.223704 -8.542260 -0.003818 -0.049633 -0.000545
11640,-0.894668 0.229452 -8.538667 -0.007090 -0.052905 -0.001636
11660,-0.899694 0.224640 -8.534860 -0.004909 -0.047997 -0.001636
11680,-0.902351 0.230839 -8.526505 -0.006545 -0.053996 0.000000
11700,-0.893997 0.220900 -8.532135 -0.001091 -0.048542 -0.001091
11720,-0.893162 0.236067 -8.521277 -0.006000 -0.050724 -0.001636
11740,-0.897388 0.224871 -8.534629 -0.003272 -0.051814 -0.001636
11760,-0.897811 0.222673 -8.513123 -0.001636 -0.050178 -0.001636
11780,-0.900008 0.231073 -8.545666 -0.005454 -0.054542 -0.001636
11800,-0.902382 0.228681 -8.539438 -0.007090 -0.047997 -0.000545
11820,-0.889691 0.234260 -8.531704 -0.004909 -0.046360 -0.002182
11840,-0.901351 0.228784 -8.524251 -0.002727 -0.051814 -0.002727
11860,-0.896052 0.235778 -8.517257 -0.002182 -0.048542 -0.001091
11880,-0.895522 0.233677 -8.517203 -0.004909 -0.047997 0.000000
11900,-0.906244 0.234759 -8.541979 -0.007090 -0.050178 0.000000
11920,-0.894387 0.229480 -8.534328 -0.006545 -0.049633 0.000000
11940,-0.891046 0.227660 -8.533995 -0.002727 -0.048542 -0.001636
11960,-0.903641 0.235020 -8.530945 -0.004363 -0.051269 -0.002727
11980,-0.898436 0.237695 -8.526114 -0.006000 -0.051814 -0.000545
12000,-0.891451 0.234084 -8.531880 -0.006545 -0.052905 -0.001091
12020,-0.895062 0.229413 -8.525777 -0.007636 -0.054542 -0.002182
12040,-0.899733 0.233255 -8.537019 -0.007636 -0.050178 -0.002182
12060,-0.908819 0.219418 -8.540082 -0.004363 -0.051269 -0.001636
12080,-0.896799 0.229239 -8.506557 -0.002727 -0.047451 -0.002182
12100,-0.906371 0.219662 -8.535527 -0.004909 -0.049087 0.001091
12120,-0.905174 0.230557 -8.537562 -0.006545 -0.050724 -0.001091
12140,-0.902899 0.222165 -8.533025 -0.003272 -0.050724 -0.000545
12160,-0.904826 0.221972 -8.543992 -0.008181 -0.052360 0.001636
12180,-0.898555 0.229064 -8.528281 -0.007090 -0.053451 0.000000
12200,-0.904392 0.230635 -8.531019 -0.006545 -0.050178 0.001091
12220,-0.902821 0.224327 -8.524398 -0.006000 -0.050178 -0.000545
12240,-0.902664 0.228653 -8.522227 -0.003272 -0.049633 -0.001636
12260,-0.902648 0.224345 -8.528690 -0.009272 -0.049633 -0.000545
12280,-0.902646 0.228654 -8.539465 -0.004363 -0.046906 -0.000545
12300,-0.909111 0.230163 -8.544421 -0.003818 -0.048542 0.000000
12320,-0.909757 0.234408 -8.520782 -0.010363 -0.050724 0.001091
12340,-0.903357 0.222119 -8.537381 -0.006545 -0.047451 -0.001636
12360,-0.907027 0.221752 -8.539903 -0.004909 -0.051269 -0.000545
12380,-0.888000 0.225809 -8.533690 -0.002182 -0.053996 -0.000545
12400,-0.903337 0.241515 -8.524449 -0.008181 -0.049633 -0.001636
12420,-0.907025 0.232526 -8.520509 -0.005454 -0.053451 0.000000
12440,-0.898774 0.222577 -8.532613 -0.005454 -0.051269 -0.002182
12460,-0.908724 0.228047 -8.546536 -0.006000 -0.050178 0.000000
12480,-0.903254 0.232903 -8.554609 -0.004363 -0.053996 0.001091
12500,-0.915636 0.238130 -8.523524 -0.004909 -0.052360 -0.001091
12520,-0.899636 0.237575 -8.539164 -0.006000 -0.051269 -0.000545
12540,-0.893726 0.227392 -8.540728 -0.004909 -0.052360 -0.001636
12560,-0.899599 0.233269 -8.554244 -0.003818 -0.049087 0.000000
12580,-0.913116 0.221143 -8.534047 -0.008727 -0.051269 -0.001636
12600,-0.912313 0.229843 -8.514573 -0.008181 -0.050178 -0.001091
12620,-0.903613 0.228558 -8.524477 -0.007090 -0.049087 0.001091
12640,-0.902743 0.226490 -8.524390 -0.006545 -0.050178 0.000545
12660,-0.913430 0.225421 -8.518994 -0.007090 -0.055087 0.000000
12680,-0.899415 0.224668 -8.519748 -0.006000 -0.051814 -0.000545
12700,-0.904478 0.222007 -8.539648 -0.008181 -0.050178 0.001636
12720,-0.900675 0.226697 -8.511254 -0.003818 -0.050724 -0.001636
12740,-0.902449 0.226519 -8.522206 -0.006000 -0.051269 0.000000
12760,-0.898317 0.231242 -8.554115 -0.006000 -0.051269 0.001636
12780,-0.906523 0.236886 -8.537698 -0.002727 -0.046360 -0.000545
12800,-0.885795 0.232494 -8.529160 -0.005454 -0.049633 0.000000
12820,-0.903116 0.237227 -8.530892 -0.004909 -0.049087 0.000000
12840,-0.898383 0.229081 -8.528264 -0.005454 -0.049087 0.000000
12860,-0.895755 0.225034 -8.538775 -0.006000 -0.050178 0.000000
12880,-0.886873 0.228077 -8.512029 -0.006545 -0.053996 -0.001636
12900,-0.894604 0.231613 -8.534350 -0.006000 -0.051814 -0.003272
12920,-0.910461 0.223563 -8.523007 -0.005454 -0.049633 0.000000
12940,-0.905583 0.230516 -8.524674 -0.004909 -0.050724 -0.001636
12960,-0.905095 0.232719 -8.546174 -0.004363 -0.051269 -0.001091
12980,-0.913665 0.227553 -8.510399 -0.004363 -0.048542 -0.007636
13000,-0.880045 0.230915 -8.524275 -0.004363 -0.047451 -0.024544
13020,-0.889612 0.229958 -8.538161 -0.008727 -0.051814 -0.000545
13040,-0.907807 0.219519 -8.537826 -0.006000 -0.047997 -0.000545
13060,-0.913937 0.223216 -8.529819 -0.006000 -0.050178 -0.000545
13080,-0.897311 0.233498 -8.534621 -0.003272 -0.047997 -0.001091
13100,-0.904268 0.237112 -8.513768 -0.005454 -0.050724 0.000000
13120,-0.900654 0.233163 -8.539266 -0.008727 -0.049633 -0.001636
13140,-0.904602 0.226304 -8.554744 -0.007090 -0.049633 -0.000545
13160,-0.907152 0.223894 -8.539915 -0.004909 -0.049633 0.000000
13180,-0.903097 0.219990 -8.524426 -0.006000 -0.050724 -0.001636
13200,-0.894072 0.233822 -8.523523 -0.006545 -0.052360 -0.000545
13220,-0.906099 0.217535 -8.520416 -0.007090 -0.052360 -0.001091
13240,-0.894372 0.229482 -8.527863 -0.006000 -0.051269 -0.001091
13260,-0.893199 0.229599 -8.521281 -0.007090 -0.051269 -0.001636
13280,-0.895237 0.218621 -8.532259 -0.008727 -0.055632 -0.001091
13300,-0.899750 0.222479 -8.524091 -0.006545 -0.049633 0.000000
13320,-0.889428 0.227821 -8.523059 -0.004909 -0.049633 0.000000
13340,-0.907789 0.230295 -8.529204 -0.002727 -0.047451 0.000000
13360,-0.903161 0.232913 -8.522277 -0.008181 -0.049633 -0.001636
13380,-0.902698 0.237269 -8.535160 -0.006545 -0.047451 0.000000
13400,-0.906961 0.221758 -8.542051 -0.004909 -0.049633 -0.001091
13420,-0.900923 0.224517 -8.513433 -0.006000 -0.049087 -0.001636
13440,-0.906784 0.221776 -8.539878 -0.006000 -0.047997 -0.000545
13460,-0.905215 0.232707 -8.520328 -0.008181 -0.052360 -0.001636
13480,-0.902903 0.232938 -8.515787 -0.009817 -0.052905 -0.000545
13500,-0.904827 0.217662 -8.515979 -0.004363 -0.049633 -0.000545
13520,-0.898555 0.226909 -8.541210 -0.003818 -0.043633 0.000000
13540,-0.895773 0.237961 -8.549551 -0.002182 -0.049633 -0.001091
13560,-0.897649 0.224844 -8.551894 -0.009817 -0.051269 0.000545
13580,-0.897837 0.220516 -8.543293 -0.006000 -0.053451 -0.002182
13600,-0.887081 0.228056 -8.531444 -0.004363 -0.049087 0.000000
13620,-0.890315 0.227733 -8.557625 -0.009817 -0.053996 0.000000
13640,-0.918652 0.209815 -8.510897 -0.009817 -0.053996 0.001091
13660,-0.906402 0.219659 -8.559234 -0.007090 -0.051269 0.000000
13680,-0.898712 0.229048 -8.539071 -0.006545 -0.051269 -0.001091
13700,-0.919492 0.237744 -8.538994 -0.004909 -0.048542 0.001091
13720,-0.904331 0.232796 -8.513775 -0.004909 -0.046906 -0.001636
13740,-0.896350 0.240058 -8.517286 -0.006545 -0.051269 -0.001091
13760,-0.895552 0.242293 -8.515052 -0.005454 -0.047997 -0.002182
13780,-0.893317 0.229587 -8.542841 -0.006545 -0.049087 -0.002182
13800,-0.897404 0.231334 -8.519547 -0.003272 -0.049633 -0.002182
13820,-0.893503 0.218795 -8.538550 -0.006000 -0.048542 -0.002727
13840,-0.893112 0.231763 -8.510498 -0.004909 -0.049087 -0.001636
13860,-0.895228 0.233706 -8.515019 -0.006545 -0.049087 -0.000545
13880,-0.906214 0.228298 -8.529047 -0.003272 -0.051269 -0.000545
13900,-0.907313 0.236807 -8.537776 -0.007636 -0.046360 -0.000545
13920,-0.903113 0.228608 -8.539512 -0.005454 -0.051814 0.000000
13940,-0.898383 0.231236 -8.519645 -0.006545 -0.053451 0.000000
13960,-0.897910 0.239902 -8.526062 -0.010363 -0.057814 0.000000
13980,-0.887089 0.234520 -8.535754 -0.004909 -0.047451 -0.001636
14000,-0.905400 0.226224 -8.520347 -0.008181 -0.053451 -0.001636
14020,-0.902922 0.228627 -8.539492 -0.005454 -0.048542 -0.000545
14040,-0.909138 0.232315 -8.544423 -0.006545 -0.049633 -0.001636
14060,-0.903295 0.235054 -8.509361 -0.007090 -0.052360 -0.001636
14080,-0.904866 0.232742 -8.533222 -0.010908 -0.055632 -0.001636
14100,-0.898558 0.220444 -8.534746 -0.009817 -0.054542 -0.000545
14120,-0.897928 0.229126 -8.538993 -0.006545 -0.055087 -0.002727
14140,-0.906484 0.223961 -8.535539 -0.005454 -0.049087 -0.000545
14160,-0.898720 0.231202 -8.528297 -0.006545 -0.051814 -0.001091
14180,-0.902254 0.235158 -8.535115 -0.010363 -0.051269 -0.001636
14200,-0.898297 0.222625 -8.530410 -0.008727 -0.049633 -0.001636
14220,-0.889282 0.223526 -8.535974 -0.006000 -0.050178 -0.002727
14240,-0.897000 0.233529 -8.515197 -0.004363 -0.045815 -0.001636
14260,-0.897772 0.226987 -8.534667 -0.009817 -0.052360 -0.003272
14280,-0.852597 0.248743 -8.502137 -0.007090 -0.051269 -0.016362
14300,-0.897641 0.227000 -8.536809 -0.008181 -0.046360 -0.002182
14320,-0.893526 0.225257 -8.521314 -0.006000 -0.049087 -0.002182
14340,-0.897425 0.227022 -8.534633 -0.007090 -0.052905 0.000545
14360,-0.904279 0.239265 -8.539628 -0.006000 -0.051814 -0.001091
14380,-0.898500 0.231224 -8.521811 -0.007636 -0.053996 -0.001091
14400,-0.895767 0.222878 -8.545241 -0.009817 -0.050178 -0.001636
14420,-0.893339 0.229585 -8.532069 -0.008181 -0.052360 -0.001636
14440,-0.899561 0.237582 -8.526227 -0.004363 -0.045269 -0.000545
14460,-0.900183 0.231056 -8.541373 -0.009817 -0.052905 -0.000545
14480,-0.904555 0.215534 -8.528881 -0.009272 -0.049633 -0.003272
14500,-0.894218 0.223033 -8.517073 -0.006000 -0.050178 -0.001636
14520,-0.901803 0.226584 -8.535070 -0.006545 -0.045815 -0.001636
14540,-0.911181 0.229956 -8.538163 -0.007090 -0.051269 -0.000545
14560,-0.903500 0.219950 -8.539550 -0.004363 -0.047451 0.000000
14580,-0.898422 0.233387 -8.513184 -0.007636 -0.049087 0.000000
14600,-0.904379 0.226326 -8.518089 -0.009272 -0.051269 -0.001091
14620,-0.900665 0.218078 -8.522028 -0.009817 -0.050178 -0.001091
14640,-0.904603 0.219839 -8.528886 -0.004909 -0.047997 -0.000545
14660,-0.881293 0.235099 -8.517936 -0.009272 -0.051269 -0.002182
14680,-0.902666 0.232962 -8.548086 -0.008181 -0.053451 -0.001636
14700,-0.900493 0.226715 -8.517700 -0.008181 -0.050178 -0.000545
14720,-0.895966 0.220703 -8.530177 -0.006545 -0.047997 -0.001091
14740,-0.897669 0.220533 -8.528193 -0.007090 -0.052360 -0.000545
14760,-0.917233 0.231506 -8.547388 -0.009817 -0.052905 -0.000545
14780,-0.895485 0.233680 -8.540903 -0.008727 -0.050724 -0.001091
14800,-0.895466 0.222908 -8.532282 -0.009272 -0.050724 -0.001091
14820,-0.914857 0.210194 -8.510518 -0.007090 -0.049087 -0.001636
14840,-0.899558 0.228963 -8.556395 -0.009817 -0.051269 -0.001636
14860,-0.902337 0.222221 -8.513576 -0.008727 -0.053451 -0.001636
14880,-0.900460 0.218099 -8.509078 -0.006545 -0.049087 -0.000545
14900,-0.902428 0.224367 -8.539443 -0.009817 -0.052360 -0.001091
14920,-0.900470 0.228872 -8.509079 -0.007636 -0.049087 -0.000545
14940,-0.898119 0.226952 -8.532547 -0.008181 -0.052360 -0.001636
14960,-0.895729 0.229346 -8.530153 -0.008181 -0.050178 0.000000
14980,-0.914884 0.227431 -8.523449 -0.007090 -0.045815 -0.001091
15000,-0.899560 0.235428 -8.513298 -0.008181 -0.044724 -0.001636
15020,-0.904492 0.226315 -8.543959 -0.003818 -0.046360 -0.001636
15040,-0.896366 0.224973 -8.538836 -0.008181 -0.049633 -0.001091
15060,-0.899863 0.222468 -8.534877 -0.004909 -0.047451 0.000545
15080,-0.893749 0.227389 -8.514872 -0.011999 -0.056178 -0.003818
15100,-0.897447 0.224865 -8.517396 -0.008181 -0.051814 -0.001636
15120,-0.906436 0.228275 -8.524759 -0.004909 -0.047997 -0.000545
15140,-0.896561 0.233573 -8.521617 -0.006545 -0.045269 0.000000
15160,-0.893418 0.229577 -8.540696 -0.008727 -0.049087 -0.002182
15180,-0.895259 0.231548 -8.532261 -0.005454 -0.049087 -0.001091
15200,-0.904062 0.230668 -8.528831 -0.008181 -0.047997 -0.001636
15220,-0.889859 0.238553 -8.529567 -0.007636 -0.046906 -0.001091
15240,-0.905677 0.219732 -8.541923 -0.005454 -0.047451 -0.000545
15260,-0.890020 0.229917 -8.508034 -0.004363 -0.046906 0.000545
15280,-0.892764 0.221023 -8.534166 -0.008727 -0.049087 -0.002182
15300,-0.912432 0.223366 -8.551217 -0.011454 -0.051269 -0.001636
15320,-0.914399 0.227479 -8.544950 -0.006545 -0.046360 0.000000
15340,-0.908131 0.221641 -8.533548 -0.007090 -0.049087 -0.001636
15360,-0.909659 0.221489 -8.544476 -0.007090 -0.051269 -0.001636
15380,-0.914122 0.216733 -8.555696 -0.010363 -0.049087 -0.003272
15400,-0.899484 0.213887 -8.519754 -0.008727 -0.047451 -0.002182
15420,-0.893711 0.233858 -8.521332 -0.009272 -0.048542 -0.001091
15440,-0.903908 0.230683 -8.537436 -0.010908 -0.050178 -0.002182
15460,-0.894153 0.231659 -8.510602 -0.004909 -0.046360 -0.001636
15480,-0.903952 0.224214 -8.513737 -0.008727 -0.052360 -0.000545
15500,-0.904932 0.219806 -8.515989 -0.006000 -0.050724 -0.002182
15520,-0.898565 0.229063 -8.528282 -0.004909 -0.047451 -0.001091
15540,-0.904393 0.228480 -8.526711 -0.004909 -0.049633 0.000545
15560,-0.898511 0.231223 -8.541206 -0.007090 -0.050178 -0.001091
15580,-0.900078 0.228911 -8.528434 -0.012545 -0.053451 -0.000545
15600,-0.895925 0.227172 -8.528018 -0.009272 -0.052360 0.000545
15620,-0.904129 0.226351 -8.533148 -0.008181 -0.053996 -0.002182
15640,-0.894175 0.227347 -8.517069 -0.004363 -0.047997 -0.001636
15660,-0.903954 0.224214 -8.509427 -0.014726 -0.055087 -0.002727
15680,-0.894158 0.227348 -8.523532 -0.006545 -0.049087 -0.001636
15700,-0.888868 0.236497 -8.512228 -0.006545 -0.049087 -0.001091
15720,-0.899114 0.220388 -8.536957 -0.006545 -0.049633 -0.001091
15740,-0.910912 0.219208 -8.546756 -0.008727 -0.050724 -0.001636
15760,-0.903473 0.228572 -8.539547 -0.009272 -0.053996 -0.002182
15780,-0.896264 0.227138 -8.534516 -0.004363 -0.047997 -0.002182
15800,-0.902008 0.233028 -8.545865 -0.009272 -0.048542 -0.001636
15820,-0.904737 0.228445 -8.528899 -0.010363 -0.052905 -0.001091
15840,-0.900701 0.226694 -8.537115 -0.007090 -0.051814 -0.003272
15860,-0.908916 0.230182 -8.537936 -0.005454 -0.049087 -0.000545
15880,-0.896809 0.229238 -8.525951 -0.006000 -0.047997 -0.002182
15900,-0.986102 0.224619 -8.530571 -0.005454 -0.050178 -0.021817
15920,-0.904527 0.222002 -8.533188 -0.009272 -0.047451 -0.013635
15940,-0.902834 0.232945 -8.545948 -0.004363 -0.044724 -0.000545
15960,-0.911285 0.225636 -8.536018 -0.007090 -0.057269 -0.000545
15980,-0.909975 0.230076 -8.522959 -0.006545 -0.051814 -0.000545
16000,-0.901224 0.220177 -8.532858 -0.006000 -0.049087 -0.000545
16020,-0.898194 0.222635 -8.539020 -0.006545 -0.050724 -0.001636
16040,-0.895736 0.231500 -8.545238 -0.007090 -0.049633 -0.001636
16060,-0.889026 0.227862 -8.523019 -0.005454 -0.047997 -0.001636
16080,-0.896975 0.211983 -8.519504 -0.011999 -0.056178 -0.000545
16100,-0.891305 0.223324 -8.527556 -0.003818 -0.045815 0.000000
16120,-0.905822 0.226182 -8.541937 -0.006000 -0.044724 -0.001091
16140,-0.896499 0.216340 -8.538850 -0.003272 -0.046360 -0.001636
16160,-0.895567 0.227207 -8.538756 -0.006000 -0.052360 0.001091
16180,-0.899783 0.222476 -8.521939 -0.003818 -0.050724 -0.000545
16200,-0.904515 0.222003 -8.511639 -0.008727 -0.055087 0.000545
16220,-0.900678 0.222387 -8.519874 -0.006000 -0.052360 -0.000545
16240,-0.898140 0.231260 -8.517466 -0.007636 -0.054542 -0.000545
16260,-0.912970 0.225467 -8.553426 -0.004909 -0.049087 -0.000545
16280,-0.888595 0.225750 -8.527285 -0.003272 -0.049633 -0.000545
16300,-0.901241 0.230950 -8.541479 -0.010363 -0.056178 -0.001636
16320,-0.900351 0.220265 -8.534925 -0.007090 -0.049633 -0.002182
16340,-0.885178 0.228246 -8.524789 -0.006000 -0.050178 -0.000545
16360,-0.918138 0.227105 -8.532394 -0.004909 -0.049633 -0.002182
16380,-0.891266 0.229792 -8.525397 -0.014181 -0.059996 0.000000
16400,-0.892889 0.233940 -8.540644 -0.007090 -0.054542 -0.000545
16420,-0.901671 0.233062 -8.537212 -0.008727 -0.052360 -0.001636
16440,-0.902549 0.232974 -8.543764 -0.003272 -0.048542 0.001091
16460,-0.894017 0.227362 -8.562305 -0.007636 -0.050178 0.000545
16480,-0.906093 0.221845 -8.509642 -0.006545 -0.049087 0.001091
16500,-0.902991 0.207071 -8.526570 -0.008727 -0.053996 -0.000545
16520,-0.898371 0.235547 -8.523953 -0.008181 -0.053996 -0.000545
16540,-0.904374 0.234946 -8.541792 -0.009817 -0.055632 -0.001091
16560,-0.902819 0.230792 -8.530863 -0.009817 -0.051814 -0.001091
16580,-0.898354 0.229084 -8.551965 -0.009272 -0.052905 0.001636
16600,-0.902217 0.222233 -8.545886 -0.003818 -0.047997 0.001091
16620,-0.900449 0.224564 -8.522006 -0.004363 -0.047997 -0.001091
16640,-0.904581 0.224151 -8.520265 -0.008727 -0.053451 -0.001091
16660,-0.892065 0.229713 -8.523322 -0.008181 -0.051814 -0.000545
16680,-0.901588 0.226605 -8.541513 -0.010908 -0.054542 -0.000545
16700,-0.898231 0.229096 -8.539023 -0.008727 -0.051269 0.000545
16720,-0.891430 0.236241 -8.529723 -0.007090 -0.047451 -0.000545
16740,-0.899370 0.226827 -8.508969 -0.004909 -0.048542 0.000545
16760,-0.900164 0.218128 -8.498274 -0.006000 -0.051814 0.000000
16780,-0.900243 0.220275 -8.543534 -0.005454 -0.052905 0.000545
16800,-0.908871 0.228032 -8.550861 -0.001091 -0.046906 -0.001636
16820,-0.905424 0.219757 -8.520349 -0.002727 -0.047997 -0.001636
16840,-0.894305 0.225179 -8.514927 -0.006000 -0.050178 0.000545
16860,-0.897502 0.235633 -8.526021 -0.008727 -0.052905 0.000000
16880,-0.893512 0.223103 -8.521313 -0.007090 -0.056178 -0.002182
16900,-0.910352 0.230039 -8.531615 -0.005454 -0.050724 -0.000545
16920,-0.916346 0.222975 -8.532215 -0.003272 -0.048542 0.000545
16940,-0.891087 0.227655 -8.510296 -0.005454 -0.049633 -0.001636
16960,-0.899336 0.213901 -8.521894 -0.008727 -0.051269 0.000000
16980,-0.895851 0.225024 -8.523701 -0.006545 -0.047997 0.002182
17000,-0.899812 0.222473 -8.547800 -0.006000 -0.052360 -0.001091
17020,-0.902363 0.215754 -8.530817 -0.004363 -0.051269 -0.001091
17040,-0.893999 0.227364 -8.512741 -0.006545 -0.051814 0.000000
17060,-0.899627 0.222492 -8.528388 -0.004363 -0.050178 -0.001636
17080,-0.895880 0.220712 -8.547407 -0.007090 -0.047451 -0.001091
17100,-0.889040 0.225705 -8.518710 -0.007636 -0.049087 -0.001091
17120,-0.892666 0.218878 -8.527692 -0.008181 -0.052905 0.000000
17140,-0.897339 0.222721 -8.523849 -0.002727 -0.047997 -0.000545
17160,-0.889186 0.221381 -8.518724 -0.006000 -0.053451 -0.000545
17180,-0.901300 0.233099 -8.530710 -0.002182 -0.044724 -0.001636
17200,-0.904666 0.224143 -8.533202 -0.007090 -0.051269 -0.001091
17220,-0.913623 0.229712 -8.531942 -0.004363 -0.049633 0.000000
17240,-0.895124 0.227252 -8.506390 -0.007090 -0.050724 -0.001636
17260,-0.908359 0.223773 -8.535726 -0.007090 -0.050724 0.000000
17280,-0.916147 0.233769 -8.534350 -0.004363 -0.047451 -0.000545
17300,-0.899687 0.222486 -8.524084 -0.004363 -0.047451 0.000545
17320,-0.906660 0.230408 -8.526937 -0.006545 -0.049633 -0.001636
17340,-0.903048 0.224305 -8.505027 -0.002727 -0.047997 -0.001091
17360,-0.887602 0.238778 -8.512102 -0.003272 -0.050724 -0.001091
17380,-0.894677 0.220832 -8.536512 -0.002182 -0.049633 -0.002182
17400,-0.897540 0.222701 -8.543263 -0.006545 -0.051269 -0.000545
17420,-0.895671 0.222887 -8.532303 -0.009272 -0.053996 -0.001091
17440,-0.886865 0.225923 -8.533577 -0.002727 -0.049087 -0.002182
17460,-0.888139 0.225795 -8.544478 -0.007636 -0.051814 -0.001636
17480,-0.896886 0.222766 -8.519495 -0.002727 -0.046906 -0.001091
17500,-0.902070 0.239486 -8.528633 -0.007090 -0.047451 -0.000545
17520,-0.902589 0.228660 -8.520065 -0.008181 -0.050724 -0.000545
17540,-0.898331 0.220467 -8.536879 -0.008181 -0.050724 0.000545
17560,-0.897905 0.233438 -8.510977 -0.003272 -0.051269 0.001091
17580,-0.893553 0.220944 -8.536401 -0.005454 -0.046360 -0.002182
17600,-0.899582 0.218187 -8.537004 -0.007636 -0.052905 0.000545
17620,-0.902340 0.232995 -8.513576 -0.003272 -0.048542 -0.000545
17640,-0.904770 0.232752 -8.520284 -0.003272 -0.046906 -0.001091
17660,-0.900704 0.218074 -8.537115 -0.005454 -0.048542 0.000000
17680,-0.902452 0.230829 -8.530826 -0.006000 -0.046360 0.000000
17700,-0.891853 0.240508 -8.503907 -0.005454 -0.049633 -0.001636
17720,-0.895102 0.242338 -8.523626 -0.003818 -0.052360 -0.000545
17740,-0.893272 0.225282 -8.525598 -0.003818 -0.051269 -0.002182
17760,-0.903864 0.230688 -8.511573 -0.007090 -0.050724 -0.001091
17780,-0.900613 0.228858 -8.524178 -0.005454 -0.049087 -0.001091
17800,-0.893824 0.223072 -8.517034 -0.005454 -0.048542 -0.001636
17820,-0.895299 0.229389 -8.523645 -0.009817 -0.053996 0.000000
17840,-0.886828 0.225927 -8.531418 -0.007090 -0.049087 -0.001636
17860,-0.892445 0.216745 -8.536289 -0.008727 -0.051269 -0.002182
17880,-0.901626 0.226602 -8.524279 -0.007090 -0.047997 0.000545
17900,-0.900389 0.211641 -8.526310 -0.007090 -0.051269 -0.001091
17920,-0.891646 0.223290 -8.531900 -0.002727 -0.045815 0.000000
17940,-0.892927 0.227472 -8.519099 -0.005454 -0.050724 0.000000
17960,-0.895210 0.218624 -8.510708 -0.006545 -0.050178 0.000000
17980,-0.899748 0.228944 -8.534865 -0.006000 -0.055087 -0.001636
18000,-0.898047 0.226960 -8.530385 -0.006545 -0.051269 -0.001636
18020,-0.900031 0.220296 -8.502570 -0.011999 -0.052905 -0.000545
18040,-0.906694 0.228250 -8.535560 -0.004363 -0.046906 -0.001636
18060,-0.898741 0.220425 -8.523990 -0.008181 -0.051814 -0.001091
18080,-0.897946 0.226970 -8.530375 -0.006000 -0.046360 -0.002182
18100,-0.895712 0.225038 -8.506448 -0.006000 -0.048542 0.000000
18120,-0.899798 0.226784 -8.515476 -0.004909 -0.054542 -0.001091
18140,-0.898052 0.231269 -8.521767 -0.006000 -0.046906 -0.000545
18160,-0.906497 0.228269 -8.533385 -0.003272 -0.049087 -0.000545
18180,-0.900876 0.218057 -8.534978 -0.010363 -0.051269 -0.000545
18200,-0.900314 0.218113 -8.513373 -0.002727 -0.047997 -0.000545
18220,-0.902413 0.232987 -8.522202 -0.005454 -0.051814 -0.002182
18240,-0.900468 0.222408 -8.545712 -0.007636 -0.051814 -0.001091
18260,-0.906738 0.230400 -8.539874 -0.003818 -0.043088 0.001091
18280,-0.898746 0.216115 -8.521835 -0.005454 -0.044724 0.001636
18300,-0.910876 0.225677 -8.527358 -0.004363 -0.049633 -0.001091
18320,-0.897005 0.231373 -8.510887 -0.004363 -0.050724 0.000000
18340,-0.895617 0.220738 -8.521523 -0.007090 -0.052905 -0.000545
18360,-0.901943 0.226570 -8.526465 -0.004909 -0.051814 -0.002727
18380,-0.900421 0.220258 -8.517694 -0.006000 -0.050724 -0.001091
18400,-0.902424 0.237296 -8.513584 -0.004909 -0.050178 -0.001091
18420,-0.894005 0.218744 -8.512742 -0.005454 -0.053996 -0.004909
18440,-0.897472 0.224862 -8.528172 -0.004909 -0.050724 -0.001091
18460,-0.895664 0.220733 -8.512908 -0.007090 -0.048542 0.000545
18480,-0.895483 0.225061 -8.515045 -0.008727 -0.052905 -0.001091
18500,-0.897620 0.233467 -8.526032 -0.006545 -0.050724 0.000545
18520,-0.897834 0.224826 -8.521745 -0.003818 -0.051269 -0.000545
18540,-0.895700 0.218575 -8.536615 -0.005454 -0.047997 -0.001091
18560,-0.889023 0.232172 -8.540257 -0.010363 -0.052360 -0.000545
18580,-0.896974 0.227067 -8.536742 -0.006000 -0.048542 -0.001636
18600,-0.902079 0.226556 -8.545873 -0.006000 -0.050178 -0.000545
18620,-0.893970 0.223057 -8.549371 -0.006000 -0.050178 -0.002182
18640,-0.897469 0.218398 -8.521708 -0.008727 -0.052905 -0.001091
18660,-0.899974 0.218147 -8.526268 -0.009272 -0.049633 -0.001091
18680,-0.900224 0.215967 -8.541377 -0.008727 -0.050178 -0.000545
18700,-0.898094 0.216180 -8.536855 -0.006000 -0.049633 0.000545
18720,-0.900036 0.228915 -8.521965 -0.005454 -0.051269 -0.002182
18740,-0.900230 0.228896 -8.521984 -0.004909 -0.052360 0.001091
18760,-0.895940 0.227170 -8.521555 -0.006545 -0.049633 0.000000
18780,-0.893356 0.227429 -8.508368 -0.006000 -0.050178 0.000000
18800,-0.901717 0.228747 -8.554456 -0.007090 -0.051814 0.000000
18820,-0.906863 0.226078 -8.561435 -0.007636 -0.051814 -0.001636
18840,-0.898758 0.222579 -8.528301 -0.002727 -0.046360 -0.000545
18860,-0.897948 0.222660 -8.536839 -0.004363 -0.051269 -0.001636
18880,-0.895712 0.225038 -8.527997 -0.008181 -0.055087 -0.001091
18900,-0.895488 0.227215 -8.521510 -0.009272 -0.051814 -0.001636
18920,-0.889001 0.230019 -8.512241 -0.007636 -0.051814 -0.001636
18940,-0.899127 0.211767 -8.532648 -0.009272 -0.052360 -0.003818
18960,-0.913069 0.214683 -8.531887 -0.007090 -0.050724 -0.009817
18980,-0.914463 0.227473 -8.572969 -0.002727 -0.047997 -0.018544
19000,-0.910293 0.225735 -8.551003 -0.009272 -0.050178 -0.004909
19020,-0.899101 0.213925 -8.549885 -0.009817 -0.054542 -0.002727
19040,-0.897982 0.220501 -8.538998 -0.012545 -0.052360 -0.001091
19060,-0.902180 0.217927 -8.532953 -0.011999 -0.050724 -0.001091
19080,-0.900445 0.218100 -8.511231 -0.012545 -0.050178 0.000000
19100,-0.898116 0.222643 -8.536857 -0.010908 -0.052905 -0.001636
19120,-0.897884 0.220511 -8.526059 -0.009272 -0.051814 0.000000
19140,-0.897860 0.216204 -8.523902 -0.011454 -0.049087 -0.001091
19160,-0.897858 0.229133 -8.528212 -0.010363 -0.052905 0.000545
19180,-0.900013 0.218144 -8.504724 -0.007636 -0.053451 0.000000
19200,-0.889454 0.229974 -8.525216 -0.005454 -0.049633 0.000000
19220,-0.903482 0.232881 -8.520154 -0.007636 -0.051269 -0.002727
19240,-0.887646 0.225845 -8.548738 -0.009817 -0.052905 -0.001091
19260,-0.896837 0.222771 -8.538883 -0.008727 -0.054542 -0.001091
19280,-0.889136 0.236470 -8.531649 -0.009817 -0.047997 -0.000545
19300,-0.896986 0.220601 -8.519505 -0.010908 -0.055087 -0.001636
19320,-0.897770 0.216213 -8.521738 -0.008181 -0.053451 -0.002727
19340,-0.900004 0.222454 -8.528426 -0.009272 -0.051814 -0.000545
19360,-0.891608 0.221139 -8.527586 -0.007090 -0.049087 -0.001636
19380,-0.895078 0.225102 -8.532243 -0.006545 -0.045269 -0.002182
19400,-0.910509 0.217094 -8.596277 -0.008181 -0.049633 -0.001636
19420,-0.899123 0.233316 -8.491705 -0.006000 -0.050178 0.000000
19440,-0.891520 0.236232 -8.469397 -0.009817 -0.053996 0.000000
19460,-0.886450 0.243203 -8.449495 -0.004363 -0.047997 -0.000545
19480,-0.901027 0.222352 -8.487586 -0.013090 -0.055632 -0.002182
19500,-0.898175 0.226947 -8.577805 -0.010908 -0.050724 -0.001636
19520,-0.902199 0.224389 -8.550194 -0.008181 -0.049633 -0.000545
19540,-0.900447 0.222410 -8.534935 -0.005454 -0.047997 0.000000
19560,-0.891652 0.212515 -8.536210 -0.006545 -0.050724 -0.000545
19580,-0.901547 0.228764 -8.535045 -0.006545 -0.047997 -0.000545
19600,-0.902536 0.230820 -8.522215 -0.005454 -0.047997 0.000000
19620,-0.891861 0.223268 -8.508218 -0.009817 -0.051814 -0.001091
19640,-0.897258 0.220574 -8.528152 -0.006545 -0.048542 -0.001636
19660,-0.899953 0.226769 -8.539195 -0.005454 -0.045815 -0.001091
19680,-0.904532 0.213382 -8.520259 -0.010363 -0.050178 -0.000545
19700,-0.898525 0.231221 -8.519659 -0.011999 -0.051269 -0.002727
19720,-0.906544 0.219645 -8.535544 -0.004363 -0.049633 0.000545
19740,-0.909501 0.221504 -8.533686 -0.009817 -0.050724 -0.001091
19760,-0.892557 0.225354 -8.519062 -0.008727 -0.051269 0.000545
19780,-0.901637 0.233065 -8.532899 -0.009817 -0.050724 -0.000545
19800,-0.902545 0.228665 -8.526525 -0.007090 -0.046906 -0.001636
19820,-0.900481 0.233181 -8.528474 -0.007636 -0.052905 -0.000545
19840,-0.893810 0.227383 -8.527806 -0.007636 -0.048542 0.000000
19860,-0.888834 0.225726 -8.516535 -0.007090 -0.050178 0.001091
19880,-0.894800 0.222974 -8.540834 -0.007636 -0.048542 0.000000
19900,-0.899707 0.218174 -8.526241 -0.006000 -0.046360 -0.001091
19920,-0.902352 0.217910 -8.528661 -0.010363 -0.050178 -0.001091
19940,-0.906927 0.223917 -8.542048 -0.007636 -0.053451 -0.001636
19960,-0.892300 0.240463 -8.510417 -0.005454 -0.050724 -0.002182
19980,-0.910231 0.217122 -8.527294 -0.006545 -0.046360 -0.002182
20000,-0.899095 0.226855 -8.526180 -0.009272 -0.051814 -0.003272
20020,-0.897981 0.224811 -8.523914 -0.006545 -0.049087 -0.001636
20040,-0.906489 0.223960 -8.518300 -0.006545 -0.051269 0.000000
20060,-0.892256 0.234003 -8.516877 -0.012545 -0.048542 -0.000545
20080,-0.901607 0.228758 -8.554444 -0.009272 -0.047451 0.000000
20100,-0.902542 0.222200 -8.539454 -0.010363 -0.050178 -0.002182
20120,-0.900481 0.231026 -8.547868 -0.003818 -0.046360 0.000000
20140,-0.902430 0.213592 -8.537288 -0.008181 -0.050178 -0.001636
20160,-0.904779 0.228441 -8.522439 -0.008727 -0.050178 -0.001091
20180,-0.905014 0.226263 -8.535392 -0.006545 -0.049087 0.001636
20200,-0.896419 0.222813 -8.551771 -0.008727 -0.055087 -0.000545
20220,-0.897714 0.231303 -8.543281 -0.007090 -0.051814 -0.000545
20240,-0.891379 0.221162 -8.527563 -0.008727 -0.051269 0.000000
20260,-0.897210 0.231353 -8.521682 -0.010363 -0.050724 -0.001091
20280,-0.899948 0.213840 -8.528420 -0.013090 -0.051814 0.000545
20300,-0.891602 0.229759 -8.525431 -0.010363 -0.054542 -0.001636
20320,-0.901542 0.222300 -8.524270 -0.007636 -0.049087 -0.000545
20340,-0.900381 0.226726 -8.526309 -0.007090 -0.046906 -0.001091
20360,-0.898110 0.226953 -8.547630 -0.007636 -0.047451 -0.002182
20380,-0.897883 0.231286 -8.536834 -0.006545 -0.050178 -0.001091
20400,-0.900015 0.215988 -8.545666 -0.009272 -0.054542 -0.001636
20420,-0.891609 0.238378 -8.525432 -0.012545 -0.050178 -0.001636
20440,-0.903697 0.224240 -8.533105 -0.007090 -0.051269 -0.000545
20460,-0.898442 0.222610 -8.547664 -0.009272 -0.050724 0.000545
20480,-0.908690 0.225895 -8.537914 -0.006545 -0.051269 -0.000545
20500,-0.898941 0.216096 -8.513236 -0.011454 -0.053451 -0.001636
20520,-0.902276 0.224382 -8.535118 -0.007636 -0.049087 0.001636
20540,-0.893990 0.225210 -8.553683 -0.008181 -0.050724 0.000545
20560,-0.897471 0.233482 -8.528172 -0.009272 -0.056723 -0.001636
20580,-0.904284 0.232800 -8.535318 -0.004363 -0.049633 -0.001636
20600,-0.898500 0.226914 -8.502418 -0.006545 -0.049633 -0.001091
20620,-0.902232 0.235160 -8.550198 -0.004363 -0.045815 -0.000545
20640,-0.902605 0.222194 -8.532996 -0.007636 -0.050724 0.001091
20660,-0.887558 0.225854 -8.516407 -0.008727 -0.048542 -0.001636
20680,-0.892518 0.221048 -8.521213 -0.011999 -0.053451 -0.002727
20700,-0.899479 0.222507 -8.528374 -0.003272 -0.048542 -0.001091
20720,-0.895865 0.229333 -8.532322 -0.008181 -0.051814 0.000000
20740,-0.897658 0.224843 -8.519572 -0.011454 -0.052905 -0.000545
20760,-0.904302 0.217715 -8.543940 -0.007090 -0.049633 -0.001091
20780,-0.904967 0.217648 -8.559091 -0.008727 -0.051269 -0.001636
20800,-0.896414 0.224968 -8.530222 -0.007636 -0.046906 -0.001091
20820,-0.899868 0.226777 -8.534877 -0.006545 -0.051269 -0.001091
20840,-0.891594 0.227605 -8.523275 -0.007636 -0.052360 -0.000545
20860,-0.899386 0.218206 -8.526210 -0.007090 -0.049633 -0.002182
20880,-0.900165 0.224593 -8.532752 -0.005454 -0.051269 -0.001091
20900,-0.900243 0.218120 -8.537069 -0.008727 -0.049087 0.001091
20920,-0.895941 0.212086 -8.519401 -0.009817 -0.051814 -0.000545
20940,-0.906285 0.226136 -8.516125 -0.009272 -0.052905 0.000000
20960,-0.907320 0.234652 -8.531313 -0.006545 -0.049087 0.000000
20980,-0.905268 0.228392 -8.528953 -0.010363 -0.053996 -0.001091
21000,-0.900754 0.226689 -8.526346 -0.007090 -0.050178 0.000000
21020,-0.906767 0.226088 -8.533412 -0.011999 -0.053451 0.000000
21040,-0.909523 0.210728 -8.550926 -0.008181 -0.050178 -0.000545
21060,-0.907644 0.217380 -8.555048 -0.009272 -0.053996 -0.001091
21080,-0.896681 0.227096 -8.502235 -0.007636 -0.050724 -0.001091
21100,-0.897740 0.214061 -8.530354 -0.008181 -0.053451 -0.002727
21120,-0.908620 0.212973 -8.537907 -0.003818 -0.049087 -0.000545
21140,-0.894624 0.227302 -8.540817 -0.009817 -0.050178 -0.001636
21160,-0.860902 0.254377 -8.246539 -0.007636 -0.052360 -0.002182
21180,-0.924330 0.194163 -8.791596 -0.008181 -0.049087 -0.002182
21200,-0.922054 0.211630 -8.741807 -0.008727 -0.053996 -0.001091
21220,-0.893813 0.238157 -8.508413 -0.007636 -0.052360 -0.002727
21240,-0.890989 0.225510 -8.484427 -0.006545 -0.051814 -0.001091
21260,-0.888551 0.225754 -8.477719 -0.007636 -0.051269 0.001091
21280,-0.899082 0.218237 -8.539108 -0.006545 -0.049087 0.000000
21300,-0.900135 0.224596 -8.530594 -0.006545 -0.047451 -0.002182
21320,-0.904550 0.219845 -8.531035 -0.007090 -0.047451 0.000545
21340,-0.898527 0.216137 -8.526123 -0.004909 -0.046906 -0.002182
21360,-0.893615 0.225248 -8.508393 -0.009272 -0.052905 0.000000
21380,-0.895279 0.222927 -8.517179 -0.007090 -0.050724 0.000545
21400,-0.895445 0.218600 -8.530125 -0.008181 -0.047451 0.000000
21420,-0.895462 0.227218 -8.532282 -0.007090 -0.050178 0.000000
21440,-0.899773 0.228942 -8.513319 -0.006000 -0.053996 0.001091
21460,-0.902359 0.222219 -8.528662 -0.007090 -0.050724 -0.000545
21480,-0.898308 0.218314 -8.543341 -0.008727 -0.052905 0.000000
21500,-0.902212 0.224388 -8.537267 -0.006000 -0.050178 -0.000545
21520,-0.893983 0.229521 -8.523514 -0.006545 -0.051269 0.001091
21540,-0.903935 0.230680 -8.526664 -0.003818 -0.049087 -0.001091
21560,-0.904930 0.230581 -8.548312 -0.006000 -0.049087 -0.002727
21580,-0.898565 0.220443 -8.530437 -0.007090 -0.051814 0.000545
21600,-0.897928 0.214042 -8.547612 -0.012545 -0.053996 -0.000545
21620,-0.902174 0.217927 -8.537263 -0.006545 -0.045269 -0.001091
21640,-0.909064 0.221548 -8.527177 -0.006545 -0.049087 0.001091
21660,-0.898978 0.231176 -8.526169 -0.006000 -0.050724 -0.002182
21680,-0.897970 0.231277 -8.534687 -0.005454 -0.048542 0.000000
21700,-0.900024 0.233226 -8.530582 -0.010363 -0.051814 -0.001091
21720,-0.911003 0.227819 -8.546764 -0.008727 -0.049087 -0.000545
21740,-0.888398 0.232234 -8.516491 -0.013090 -0.051269 0.001636
21760,-0.899067 0.218238 -8.517558 -0.008181 -0.050178 0.000545
21780,-0.891514 0.214684 -8.525422 -0.007090 -0.052360 -0.001091
21800,-0.903688 0.224241 -8.543879 -0.005454 -0.047997 -0.001636
21820,-0.898441 0.216146 -8.534735 -0.009817 -0.049633 -0.001636
21840,-0.910845 0.227835 -8.533820 -0.006545 -0.047997 -0.000545
21860,-0.907776 0.228141 -8.555061 -0.006000 -0.050724 0.000545
21880,-0.898849 0.222570 -8.556324 -0.007090 -0.051269 0.000000
21900,-0.893647 0.223090 -8.512707 -0.010363 -0.056178 -0.001091
21920,-0.893127 0.231761 -8.519119 -0.008181 -0.053451 -0.001091
21940,-0.897385 0.227026 -8.504460 -0.009272 -0.054542 -0.000545
21960,-0.908585 0.225906 -8.544368 -0.007090 -0.052360 -0.000545
21980,-0.903240 0.226440 -8.548143 -0.009817 -0.049633 -0.001091
22000,-0.896241 0.227140 -8.502192 -0.007090 -0.051269 -0.002182
22020,-0.906315 0.217513 -8.520438 -0.009272 -0.045269 -0.000545
22040,-0.913787 0.227540 -8.529804 -0.007636 -0.052905 -0.001636
22060,-0.895141 0.220786 -8.515011 -0.009272 -0.050724 0.000000
22080,-0.901896 0.222265 -8.550164 -0.006000 -0.051814 -0.001091
22100,-0.900416 0.218103 -8.526313 -0.006545 -0.051269 -0.002182
22120,-0.900268 0.215963 -8.537072 -0.011454 -0.050178 0.000000
22140,-0.889479 0.219197 -8.527373 -0.007090 -0.051814 -0.000545
22160,-0.903484 0.222106 -8.530929 -0.011999 -0.051814 -0.001636
22180,-0.904885 0.217656 -8.511675 -0.007636 -0.053451 -0.001636
22200,-0.902870 0.217858 -8.533022 -0.003272 -0.044724 0.000545
22220,-0.896204 0.224989 -8.532355 -0.007090 -0.051269 -0.000545
22240,-0.895537 0.225056 -8.538754 -0.008727 -0.055087 -0.001636
22260,-0.899781 0.231096 -8.541333 -0.008181 -0.056178 -0.001091
22280,-0.887276 0.232346 -8.514224 -0.006545 -0.047997 -0.002182
22300,-0.898954 0.209630 -8.549870 -0.009817 -0.050724 -0.001091
22320,-0.897967 0.218348 -8.554081 -0.007090 -0.047451 -0.001091
22340,-0.902178 0.213617 -8.513559 -0.009817 -0.051269 -0.001636
22360,-0.904754 0.224134 -8.515972 -0.005454 -0.049087 -0.001091
22380,-0.902857 0.228633 -8.533021 -0.005454 -0.047451 -0.001091
22400,-0.898358 0.231238 -8.511023 -0.005454 -0.050178 -0.000545
22420,-0.897908 0.226973 -8.528216 -0.010363 -0.052360 -0.000545
22440,-0.906482 0.219651 -8.533383 -0.008727 -0.053451 -0.002727
22460,-0.896565 0.229263 -8.534547 -0.007636 -0.051814 0.001636
22480,-0.906348 0.226129 -8.535525 -0.013090 -0.057269 -0.002182
22500,-0.907326 0.213102 -8.537778 -0.008727 -0.049087 -0.002182
22520,-0.894495 0.225160 -8.523565 -0.005454 -0.050724 -0.000545
22540,-0.899676 0.231106 -8.526238 -0.005454 -0.049633 -0.000545
22560,-0.898040 0.233425 -8.536849 -0.009817 -0.052905 0.000545
22580,-0.902186 0.222236 -8.543728 -0.004363 -0.049633 -0.001636
22600,-0.893981 0.229521 -8.525669 -0.010363 -0.055632 0.000545
22620,-0.903935 0.224216 -8.539594 -0.004363 -0.046906 0.000000
22640,-0.896311 0.222823 -8.540986 -0.006545 -0.049087 0.000545
22660,-0.897703 0.211910 -8.532506 -0.004909 -0.047997 -0.000545
22680,-0.899997 0.224610 -8.549973 -0.008181 -0.050724 -0.001091
22700,-0.902381 0.226526 -8.556677 -0.007636 -0.057814 -0.000545
22720,-0.906929 0.223916 -8.542048 -0.007636 -0.046906 -0.000545
22740,-0.898765 0.222578 -8.554160 -0.004909 -0.047451 -0.001636
22760,-0.910878 0.229986 -8.518739 -0.004909 -0.048542 -0.000545
22780,-0.886231 0.236761 -8.544288 -0.007636 -0.052360 -0.001636
22800,-0.911779 0.216967 -8.518829 -0.007090 -0.051269 -0.000545
22820,-0.890630 0.227701 -8.503785 -0.002727 -0.051814 -0.001636
22840,-0.899290 0.211751 -8.513270 -0.002727 -0.043088 -0.001636
22860,-0.893691 0.236015 -8.506247 -0.006000 -0.053996 -0.001091
22880,-0.903906 0.215599 -8.561139 -0.008727 -0.052360 0.000000
22900,-0.894153 0.225194 -8.495518 -0.006000 -0.053451 0.000545
22920,-0.888868 0.221413 -8.501454 -0.007636 -0.053451 -0.001091
22940,-0.903423 0.222112 -8.528768 -0.008181 -0.053451 0.000000
22960,-0.907034 0.219596 -8.516200 -0.007636 -0.055632 -0.001091
22980,-0.892311 0.221069 -8.521193 -0.009817 -0.052360 0.000000
23000,-0.892993 0.227465 -8.527725 -0.009817 -0.052360 -0.001636
23020,-0.890907 0.238448 -8.518897 -0.007090 -0.050178 -0.000545
23040,-0.895008 0.218644 -8.527926 -0.007090 -0.051814 -0.002182
23060,-0.901882 0.228731 -8.552318 -0.007636 -0.050178 0.000545
23080,-0.896105 0.229309 -8.506488 -0.009817 -0.047997 0.000000
23100,-0.891218 0.227642 -8.510308 -0.010363 -0.049633 -0.001636
23120,-0.899349 0.224674 -8.513276 -0.007090 -0.050724 -0.002182
23140,-0.887232 0.228041 -8.540078 -0.010908 -0.056723 0.001091
23160,-0.896795 0.218465 -8.538879 -0.008181 -0.049087 0.000000
23180,-0.899906 0.215999 -8.528417 -0.006545 -0.053451 -0.001636
23200,-0.895908 0.233638 -8.521552 -0.007090 -0.053451 -0.002182
23220,-0.910592 0.223550 -8.559653 -0.005454 -0.051814 -0.000545
23240,-0.905596 0.219740 -8.539760 -0.006545 -0.050178 -0.000545
23260,-0.892167 0.223238 -8.534107 -0.007090 -0.053451 -0.001636
23280,-0.892979 0.223157 -8.532033 -0.006000 -0.046906 -0.000545
23300,-0.897370 0.220563 -8.521698 -0.009272 -0.051269 -0.001091
23320,-0.908583 0.217286 -8.540058 -0.009817 -0.051269 0.000000
23340,-0.898930 0.222561 -8.532628 -0.005454 -0.049087 0.000000
23360,-0.900120 0.224597 -8.515509 -0.007090 -0.053996 0.001636
23380,-0.895929 0.235791 -8.519399 -0.007636 -0.055087 -0.001091
23400,-0.904129 0.217732 -8.522374 -0.006000 -0.052360 0.001636
23420,-0.898485 0.224761 -8.532584 -0.008727 -0.052905 -0.000545
23440,-0.893611 0.220939 -8.512703 -0.002727 -0.046360 -0.001091
23460,-0.901743 0.217970 -8.530755 -0.009817 -0.052360 -0.001091
23480,-0.898246 0.214010 -8.545489 -0.006545 -0.053451 -0.000545
23500,-0.904361 0.215554 -8.548256 -0.003272 -0.051269 -0.001636
23520,-0.907127 0.221742 -8.548532 -0.004909 -0.046360 -0.001091
23540,-0.894475 0.227317 -8.532183 -0.006000 -0.046360 -0.001636
23560,-0.899674 0.222487 -8.539167 -0.007090 -0.056723 -0.000545
23580,-0.904504 0.230624 -8.541805 -0.006545 -0.051814 -0.000545
23600,-0.913606 0.223249 -8.534096 -0.003818 -0.051814 -0.002727
23620,-0.901587 0.230915 -8.502726 -0.007090 -0.056723 -0.002182
23640,-0.893921 0.227372 -8.495495 -0.006000 -0.050724 -0.001091
23660,-0.903929 0.211287 -8.543902 -0.008727 -0.049087 -0.001091
23680,-0.894155 0.223039 -8.527842 -0.008181 -0.056178 0.001091
23700,-0.903952 0.228524 -8.546060 -0.007090 -0.050724 -0.002727
23720,-0.915706 0.231658 -8.547235 -0.004909 -0.049087 -0.001636
23740,-0.901797 0.215810 -8.550154 -0.006000 -0.048542 -0.000545
23760,-0.898252 0.226939 -8.526096 -0.006545 -0.048542 0.000000
23780,-0.904362 0.209089 -8.524552 -0.003818 -0.051814 -0.000545
23800,-0.900663 0.222388 -8.526337 -0.004909 -0.049633 -0.001091
23820,-0.911067 0.219193 -8.553236 -0.002727 -0.050724 -0.002727
23840,-0.912108 0.229863 -8.551185 -0.005454 -0.049087 0.000000
23860,-0.901438 0.224466 -8.547963 -0.004909 -0.053451 0.000000
23880,-0.913300 0.223279 -8.523291 -0.007636 -0.054542 -0.007636
23900,-0.892937 0.229625 -8.538494 -0.004909 -0.051814 -0.017453
23920,-0.897366 0.220563 -8.564795 -0.010908 -0.055087 -0.004363
23940,-0.891344 0.219010 -8.529715 -0.007636 -0.053451 0.000545
23960,-0.901516 0.235232 -8.522113 -0.009817 -0.049633 -0.000545
23980,-0.900378 0.224571 -8.532773 -0.010908 -0.047451 -0.001091
24000,-0.900265 0.220273 -8.560775 -0.004909 -0.047451 -0.000545
24020,-0.913182 0.216827 -8.559912 -0.005454 -0.050178 -0.001636
24040,-0.899390 0.224670 -8.496041 -0.006000 -0.048542 -0.002182
24060,-0.893701 0.227394 -8.504092 -0.007636 -0.049087 -0.001636
24080,-0.897442 0.220555 -8.510931 -0.008181 -0.053451 0.000000
24100,-0.895661 0.220733 -8.515062 -0.006000 -0.053451 -0.001636
24120,-0.904103 0.222044 -8.554694 -0.006000 -0.048542 -0.000545
24140,-0.898482 0.224761 -8.498106 -0.006000 -0.047997 0.000000
24160,-0.897920 0.231282 -8.513134 -0.004909 -0.049633 -0.000545
24180,-0.904329 0.224176 -8.518085 -0.005454 -0.051269 -0.000545
24200,-0.900660 0.218079 -8.532802 -0.005454 -0.053996 -0.000545
24220,-0.900293 0.224580 -8.524145 -0.006000 -0.047451 -0.000545
24240,-0.893791 0.225230 -8.534269 -0.006000 -0.050178 -0.000545
24260,-0.903916 0.232837 -8.541746 -0.006545 -0.052905 -0.002727
24280,-0.894154 0.227349 -8.519221 -0.007636 -0.049633 -0.000545
24300,-0.899642 0.231110 -8.508996 -0.006545 -0.050724 -0.001091
24320,-0.904501 0.222004 -8.505173 -0.007636 -0.050178 -0.000545
24340,-0.898522 0.222602 -8.519658 -0.004909 -0.050178 0.000000
24360,-0.895769 0.220723 -8.536622 -0.004909 -0.048542 0.000545
24380,-0.895494 0.218595 -8.508581 -0.006000 -0.050178 0.000000
24400,-0.884692 0.226140 -8.522585 -0.007090 -0.050724 -0.001636
24420,-0.909470 0.223662 -8.540147 -0.008727 -0.053996 0.000000
24440,-0.905483 0.226216 -8.533283 -0.010908 -0.054542 -0.001636
24460,-0.894311 0.220869 -8.517082 -0.004363 -0.050178 -0.002727
24480,-0.903968 0.226367 -8.546062 -0.008181 -0.052360 -0.001091
24500,-0.904933 0.230581 -8.554777 -0.008181 -0.057814 0.000000
24520,-0.898565 0.235527 -8.530437 -0.005454 -0.049087 0.000545
24540,-0.897928 0.229126 -8.528218 -0.007090 -0.049633 0.000545
24560,-0.891400 0.216850 -8.544805 -0.008727 -0.052360 -0.000545
24580,-0.903677 0.219932 -8.513709 -0.008181 -0.052905 0.000000
24600,-0.909214 0.221533 -8.535811 -0.008181 -0.052905 0.000000
24620,-0.903303 0.219969 -8.520137 -0.004909 -0.052360 0.000000
24640,-0.891938 0.229725 -8.521154 -0.003818 -0.051269 0.000000
24660,-0.914505 0.216694 -8.529876 -0.004363 -0.051269 0.000000
24680,-0.903832 0.222071 -8.543893 -0.006000 -0.051814 0.000545
24700,-0.911384 0.219161 -8.520945 -0.006545 -0.053451 -0.001636
24720,-0.894901 0.220810 -8.519297 -0.007090 -0.050724 -0.001091
24740,-0.899717 0.218173 -8.521933 -0.008181 -0.051814 -0.001091
24760,-0.898044 0.224805 -8.543314 -0.008181 -0.049633 0.000000
24780,-0.893567 0.225253 -8.508389 -0.003818 -0.048542 -0.001636
24800,-0.890964 0.225513 -8.510283 -0.004363 -0.054542 -0.001091
24820,-0.899323 0.222522 -8.547751 -0.008181 -0.053451 0.000000
24840,-0.902314 0.222223 -8.543741 -0.004909 -0.049633 -0.000545
24860,-0.902613 0.213574 -8.548080 -0.009272 -0.055087 -0.001091
24880,-0.900488 0.233180 -8.519855 -0.006000 -0.047997 0.000000
24900,-0.906740 0.228245 -8.520480 -0.005454 -0.048542 -0.000545
24920,-0.905210 0.221933 -8.556960 -0.006545 -0.050724 -0.001091
24940,-0.902903 0.220009 -8.552420 -0.006000 -0.051269 -0.001636
24960,-0.902672 0.217878 -8.530848 -0.006000 -0.046360 -0.001636
24980,-0.898339 0.222621 -8.534724 -0.004363 -0.051269 0.000545
25000,-0.902216 0.222233 -8.543731 -0.005454 -0.049087 0.001091
25020,-0.902603 0.222194 -8.541615 -0.010908 -0.053996 -0.001091
25040,-0.902642 0.228655 -8.548083 -0.005454 -0.049633 -0.002727
25060,-0.900491 0.218096 -8.530629 -0.006545 -0.050724 -0.001636
25080,-0.895966 0.218548 -8.517248 -0.008727 -0.051269 0.000000
25100,-0.897669 0.235617 -8.517418 -0.008727 -0.051269 -0.002182
25120,-0.895684 0.233660 -8.523685 -0.011454 -0.061632 -0.000545
25140,-0.893331 0.231741 -8.521294 -0.006545 -0.051814 -0.002182
25160,-0.899560 0.224653 -8.511143 -0.003818 -0.053451 0.000545
25180,-0.902338 0.226530 -8.539433 -0.002727 -0.053451 -0.000545
25200,-0.904770 0.239216 -8.518128 -0.006545 -0.053996 -0.002182
25220,-0.902859 0.222169 -8.520092 -0.006545 -0.051814 0.000000
25240,-0.898358 0.218309 -8.532571 -0.008727 -0.055087 0.000000
25260,-0.900063 0.224603 -8.532742 -0.006545 -0.051814 0.000545
25280,-0.887304 0.228034 -8.531466 -0.002182 -0.046906 -0.001091
25300,-0.903267 0.230747 -8.522287 -0.009817 -0.055632 -0.001091
25320,-0.898399 0.224769 -8.545505 -0.005454 -0.053451 -0.002182
25340,-0.902222 0.222232 -8.548041 -0.002182 -0.046906 -0.000545
25360,-0.902604 0.222194 -8.543770 -0.006545 -0.049087 -0.000545
25380,-0.894023 0.223052 -8.532138 -0.007636 -0.047997 0.000545
25400,-0.914713 0.231757 -8.555756 -0.007636 -0.049633 -0.000545
25420,-0.897388 0.227025 -8.532475 -0.006545 -0.050724 -0.001636
25440,-0.899966 0.224613 -8.524113 -0.004909 -0.050178 -0.001636
25460,-0.893759 0.225233 -8.525646 -0.005454 -0.051269 -0.003818
25480,-0.901757 0.215814 -8.532911 -0.008181 -0.053451 -0.000545
25500,-0.900403 0.220259 -8.511227 -0.006545 -0.049087 -0.001636
25520,-0.893802 0.233849 -8.532116 -0.007090 -0.053451 -0.002182
25540,-0.895297 0.229389 -8.517181 -0.003272 -0.049633 -0.002727
25560,-0.895447 0.222910 -8.532280 -0.008181 -0.046906 -0.001091
25580,-0.899771 0.224632 -8.534867 -0.004909 -0.046360 -0.002182
25600,-0.891584 0.229761 -8.544823 -0.004909 -0.047451 -0.002182
25620,-0.892921 0.223162 -8.542802 -0.008727 -0.050724 -0.002727
25640,-0.899519 0.228967 -8.530533 -0.006545 -0.049087 0.000000
25660,-0.893714 0.216618 -8.540726 -0.007636 -0.051814 -0.000545
25680,-0.899598 0.220340 -8.537004 -0.008181 -0.055632 -0.000545
25700,-0.902341 0.220065 -8.535125 -0.000545 -0.047997 -0.001636
25720,-0.898306 0.229088 -8.532566 -0.007636 -0.050724 0.000545
25740,-0.895748 0.225035 -8.504297 -0.006000 -0.051269 -0.001091
25760,-0.901956 0.220104 -8.520001 -0.004909 -0.051814 -0.002727
25780,-0.900422 0.224567 -8.547862 -0.009817 -0.054542 0.000000
25800,-0.911043 0.223505 -8.535995 -0.006545 -0.053996 0.000545
25820,-0.901331 0.226631 -8.517784 -0.007636 -0.050178 0.000000
25840,-0.896050 0.222849 -8.534495 -0.004363 -0.050178 -0.001091
25860,-0.901987 0.226566 -8.543708 -0.006000 -0.050178 -0.000545
25880,-0.898271 0.224782 -8.526098 -0.006000 -0.049633 0.000000
25900,-0.895744 0.216415 -8.523690 -0.009272 -0.055632 0.000000
25920,-0.908421 0.223767 -8.514184 -0.004363 -0.047997 -0.001091
25940,-0.909688 0.227950 -8.529394 -0.003272 -0.045269 -0.001091
25960,-0.892576 0.225352 -8.508289 -0.005454 -0.053451 -0.001091
25980,-0.901639 0.217981 -8.524280 -0.006000 -0.049087 -0.002182
26000,-0.902546 0.232974 -8.522216 -0.004909 -0.051814 -0.000545
26020,-0.894017 0.229517 -8.529983 -0.004363 -0.047451 -0.001636
26040,-0.897474 0.214088 -8.526018 -0.004909 -0.046906 -0.002182
26060,-0.899974 0.218147 -8.552127 -0.007636 -0.053451 -0.001636
26080,-0.900224 0.215967 -8.562925 -0.004909 -0.050178 -0.001636
26100,-0.900249 0.222430 -8.517676 -0.009817 -0.050724 0.000545
26120,-0.913181 0.221136 -8.527589 -0.003272 -0.050724 -0.002182
26140,-0.903700 0.222085 -8.530951 -0.001091 -0.045815 -0.001091
26160,-0.891977 0.221102 -8.529778 -0.007090 -0.052905 -0.000545
26180,-0.892960 0.227468 -8.508327 -0.000545 -0.046906 -0.000545
26200,-0.897368 0.222718 -8.523852 -0.005454 -0.047997 -0.001091
26220,-0.897809 0.235603 -8.513123 -0.010363 -0.056178 -0.001636
26240,-0.889233 0.221376 -8.538123 -0.009272 -0.053451 -0.000545
26260,-0.901305 0.220169 -8.532866 -0.007636 -0.053451 -0.001636
26280,-0.902512 0.209274 -8.528677 -0.009817 -0.053451 -0.002182
26300,-0.900478 0.228871 -8.528474 -0.007636 -0.052360 -0.002182
26320,-0.895965 0.214239 -8.521558 -0.007090 -0.050724 0.000000
26340,-0.904133 0.224196 -8.511600 -0.006545 -0.052360 0.000000
26360,-0.911414 0.227778 -8.525257 -0.004363 -0.053451 -0.001636
26380,-0.901368 0.222318 -8.522098 -0.003818 -0.047997 -0.001091
26400,-0.898209 0.216169 -8.519627 -0.007636 -0.053996 -0.000545
26420,-0.895738 0.231500 -8.530154 -0.006545 -0.050178 0.000000
26440,-0.895491 0.214286 -8.534439 -0.006000 -0.050724 -0.001091
26460,-0.897621 0.214073 -8.528188 -0.004363 -0.050724 0.000000
26480,-0.899989 0.224610 -8.532734 -0.006000 -0.051269 -0.002182
26500,-0.898071 0.226957 -8.551936 -0.006545 -0.047451 -0.001091
26520,-0.904344 0.228485 -8.520241 -0.009817 -0.056723 -0.000545
26540,-0.889887 0.225621 -8.538189 -0.005454 -0.050724 0.000545
26560,-0.894906 0.216499 -8.553775 -0.004909 -0.049633 -0.000545
26580,-0.906182 0.223991 -8.529044 -0.004909 -0.052360 0.000000
26600,-0.896535 0.227111 -8.521615 -0.008727 -0.047997 0.000000
26620,-0.893416 0.229577 -8.499754 -0.008181 -0.053451 0.001091
26640,-0.899568 0.220343 -8.513298 -0.007090 -0.053451 -0.001091
26660,-0.889409 0.223514 -8.533832 -0.002727 -0.051269 0.000000
26680,-0.903477 0.232881 -8.533083 -0.008727 -0.051269 -0.002182
26700,-0.904884 0.221966 -8.511675 -0.008727 -0.053451 -0.001091
26720,-0.896405 0.222814 -8.534531 -0.005454 -0.051269 0.000000
26740,-0.897712 0.218374 -8.532507 -0.003272 -0.050724 0.000545
26760,-0.889224 0.234306 -8.503645 -0.006000 -0.049087 0.000545
26780,-0.899149 0.222540 -8.502482 -0.007090 -0.047997 -0.002727
26800,-0.900142 0.226750 -8.526285 -0.007090 -0.049087 0.000000
26820,-0.904551 0.217690 -8.531035 -0.008727 -0.055087 -0.002182
26840,-0.896372 0.227127 -8.519444 -0.006545 -0.049633 0.001091
26860,-0.882625 0.224192 -8.526689 -0.004363 -0.047451 -0.002182
26880,-0.885560 0.228208 -8.518362 -0.002727 -0.046906 0.000000
26900,-0.894473 0.231627 -8.525718 -0.006545 -0.046360 -0.000545
26920,-0.903984 0.219901 -8.515895 -0.004909 -0.049633 -0.000545
26940,-0.902780 0.217867 -8.520084 -0.007636 -0.050724 -0.002182
26960,-0.904814 0.217663 -8.520288 -0.004909 -0.049633 -0.000545
26980,-0.905018 0.219798 -8.531082 -0.001091 -0.045269 0.001091
27000,-0.896419 0.229277 -8.530222 -0.006000 -0.046360 0.000545
27020,-0.895559 0.233673 -8.519362 -0.008181 -0.052360 0.001091
27040,-0.904092 0.226355 -8.541764 -0.008181 -0.052360 0.000000
27060,-0.896326 0.229286 -8.549607 -0.001636 -0.047451 -0.001091
27080,-0.906324 0.221822 -8.546297 -0.006545 -0.051814 0.000000
27100,-0.903014 0.222153 -8.530882 -0.007636 -0.049633 -0.000545
27120,-0.904838 0.224126 -8.528910 -0.006545 -0.047451 0.000000
27140,-0.889936 0.227771 -8.516645 -0.009272 -0.051269 -0.001091
27160,-0.894911 0.238047 -8.536536 -0.005454 -0.049087 -0.002182
27180,-0.895408 0.216449 -8.545205 -0.005454 -0.051814 -0.001091
27200,-0.906232 0.226141 -8.520430 -0.008181 -0.052360 -0.000545
27220,-0.903005 0.222154 -8.539500 -0.002727 -0.046906 0.000545
27240,-0.909147 0.223695 -8.546579 -0.004909 -0.050178 -0.002727
27260,-0.898987 0.233330 -8.517550 -0.003272 -0.048542 0.001091
27280,-0.900125 0.222442 -8.524129 -0.007636 -0.053996 -0.000545
27300,-0.891620 0.214673 -8.523278 -0.007636 -0.054542 0.000000
27320,-0.903698 0.219930 -8.535260 -0.009272 -0.051814 -0.001091
27340,-0.902751 0.222179 -8.535166 -0.009272 -0.052905 0.001091
27360,-0.909121 0.212923 -8.527183 -0.006545 -0.046906 0.000545
27380,-0.892519 0.223203 -8.508284 -0.003272 -0.051269 -0.000545
27400,-0.897324 0.218412 -8.513074 -0.008181 -0.051814 0.000000
27420,-0.893495 0.216640 -8.510536 -0.004909 -0.052360 -0.001091
27440,-0.899576 0.228961 -8.571481 -0.004363 -0.051269 0.000000
27460,-0.902339 0.204982 -8.543743 -0.004363 -0.045815 -0.000545
27480,-0.904770 0.219823 -8.546142 -0.006000 -0.048542 -0.001091
27500,-0.889930 0.238546 -8.520954 -0.004909 -0.046906 -0.001636
27520,-0.892755 0.225334 -8.506152 -0.005454 -0.048542 -0.001091
27540,-0.897347 0.231339 -8.515231 -0.001636 -0.045269 -0.000545
27560,-0.891342 0.229785 -8.523251 -0.008727 -0.050724 -0.001091
27580,-0.916600 0.229414 -8.571028 -0.006000 -0.049633 -0.001636
27600,-0.908351 0.221619 -8.527106 -0.006545 -0.050178 -0.001636
27620,-0.894597 0.220840 -8.534350 -0.006545 -0.052360 0.000545
27640,-0.901841 0.220115 -8.569552 -0.008727 -0.053996 0.001091
27660,-0.891791 0.231895 -8.564238 -0.003818 -0.051269 -0.001636
27680,-0.892941 0.225315 -8.542804 -0.007636 -0.049633 -0.000545
27700,-0.903831 0.243620 -8.502951 -0.007090 -0.050724 -0.001091
27720,-0.898455 0.216144 -8.528271 -0.007636 -0.051269 -0.000545
27740,-0.891453 0.229774 -8.510332 -0.008181 -0.049087 -0.000545
27760,-0.907991 0.225965 -8.516295 -0.008727 -0.051814 -0.001636
27780,-0.885942 0.232480 -8.535639 -0.006545 -0.046360 -0.002727
27800,-0.905286 0.221926 -8.531109 -0.007636 -0.049087 -0.000545
27820,-0.909375 0.225827 -8.518589 -0.005454 -0.049087 -0.000545
27840,-0.896855 0.218459 -8.528111 -0.004909 -0.045269 0.000000
27860,-0.906377 0.228281 -8.533373 -0.008181 -0.048542 0.001091
27880,-0.892245 0.225385 -8.519031 -0.007636 -0.049633 -0.002182
27900,-0.916690 0.222940 -8.480533 -0.004363 -0.044724 -0.002182
27920,-0.904051 0.232824 -8.515902 -0.005454 -0.047451 -0.001091
27940,-0.909251 0.223684 -8.555209 -0.007636 -0.049087 -0.001636
27960,-0.901152 0.218030 -8.431572 -0.002182 -0.048542 -0.001636
27980,-0.917581 0.225006 -8.521564 -0.009272 -0.051269 -0.001091
28000,-0.906295 0.228290 -8.520435 -0.007636 -0.051269 0.001091
28020,-0.900856 0.224524 -8.530666 -0.003272 -0.046360 -0.002727
28040,-0.900312 0.224578 -8.552160 -0.006545 -0.047997 -0.000545
28060,-0.900258 0.233203 -8.517677 -0.008181 -0.048542 -0.000545
28080,-0.900253 0.226739 -8.560774 -0.004363 -0.047451 -0.003272
28100,-0.902407 0.228678 -8.524357 -0.008727 -0.052360 0.001636
28120,-0.900467 0.213788 -8.547866 -0.006000 -0.047997 -0.001091
28140,-0.895964 0.231478 -8.523712 -0.003818 -0.050724 -0.001091
28160,-0.897668 0.233462 -8.532502 -0.006000 -0.050724 -0.001091
28180,-0.897839 0.233445 -8.534674 -0.008181 -0.050724 0.000545
28200,-0.895701 0.233659 -8.515066 -0.004363 -0.046906 -0.000545
28220,-0.908416 0.223768 -8.520648 -0.006000 -0.049087 0.001091
28240,-0.901068 0.220193 -8.526378 -0.009272 -0.049633 0.001091
28260,-0.902488 0.230825 -8.530829 -0.005454 -0.049633 -0.001636
28280,-0.900476 0.226717 -8.522009 -0.010908 -0.051814 -0.002727
28300,-0.893810 0.231693 -8.517033 -0.009817 -0.052905 0.000000
28320,-0.901763 0.220123 -8.517828 -0.006545 -0.048542 -0.000545
28340,-0.909022 0.223707 -8.531483 -0.006545 -0.052360 0.000545
28360,-0.905439 0.219756 -8.535434 -0.005454 -0.049633 -0.000545
28380,-0.894306 0.223024 -8.512773 -0.009272 -0.051814 0.000000
28400,-0.895348 0.225075 -8.515031 -0.009272 -0.049087 0.000000
28420,-0.893297 0.236054 -8.519135 -0.007636 -0.051814 -0.001091
28440,-0.895247 0.222930 -8.540879 -0.007636 -0.054542 -0.000545
28460,-0.899751 0.228944 -8.519781 -0.009272 -0.054542 0.000000
28480,-0.895892 0.233640 -8.528015 -0.010908 -0.049633 0.000000
28500,-0.895506 0.225059 -8.525822 -0.006000 -0.046906 0.000000
28520,-0.893313 0.225278 -8.562235 -0.007636 -0.046360 0.000545
28540,-0.899558 0.226808 -8.524072 -0.010363 -0.054542 0.001091
28560,-0.900183 0.233211 -8.511205 -0.008181 -0.053451 -0.001091
28580,-0.893780 0.231696 -8.517030 -0.004363 -0.051269 -0.001636
28600,-0.890985 0.219046 -8.540453 -0.007090 -0.055087 0.000545
28620,-0.899325 0.222522 -8.504655 -0.008181 -0.049087 0.000000
28640,-0.898004 0.222654 -8.495903 -0.010908 -0.050178 0.000000
28660,-0.891408 0.223314 -8.555579 -0.007090 -0.050178 0.000000
28680,-0.901522 0.228767 -8.530733 -0.006545 -0.050724 -0.000545
28700,-0.896069 0.222848 -8.530188 -0.008727 -0.051814 -0.001091
28720,-0.899834 0.216007 -8.500396 -0.006000 -0.049633 -0.001091
28740,-0.891591 0.229760 -8.503881 -0.008181 -0.052360 0.000000
28760,-0.901541 0.237384 -8.541509 -0.007636 -0.053451 0.000545
28780,-0.898226 0.231251 -8.549797 -0.011999 -0.053451 0.000000
28800,-0.902204 0.217924 -8.537266 -0.007636 -0.047997 0.000000
28820,-0.900447 0.235339 -8.534935 -0.004363 -0.048542 -0.002727
28840,-0.891652 0.218980 -8.544829 -0.001091 -0.047997 -0.001091
28860,-0.901547 0.228764 -8.541510 -0.002727 -0.053451 -0.001091
28880,-0.898227 0.226942 -8.526093 -0.006545 -0.052360 0.000000
28900,-0.904359 0.222019 -8.524551 -0.007636 -0.051814 0.001091
28920,-0.904972 0.215493 -8.524613 -0.008727 -0.051269 -0.001636
28940,-0.898569 0.220443 -8.545522 -0.006545 -0.052905 -0.003272
28960,-0.900084 0.226756 -8.541363 -0.007090 -0.047997 -0.002182
28980,-0.898080 0.218337 -8.521770 -0.007636 -0.045815 -0.001091
29000,-0.895725 0.227192 -8.536617 -0.011999 -0.052905 -0.001091
29020,-0.895490 0.233680 -8.545214 -0.008181 -0.052360 -0.000545
29040,-0.901931 0.220107 -8.532928 -0.008181 -0.053996 0.001091
29060,-0.893955 0.227369 -8.519201 -0.007090 -0.049633 0.000000
29080,-0.895313 0.235852 -8.549505 -0.012545 -0.055087 0.001636
29100,-0.906223 0.226142 -8.561371 -0.010908 -0.053996 0.001091
29120,-0.900849 0.226679 -8.517736 -0.011999 -0.052905 0.000545
29140,-0.891692 0.218976 -8.523285 -0.004909 -0.046360 -0.002182
29160,-0.903706 0.224239 -8.526641 -0.009272 -0.047997 -0.000545
29180,-0.904907 0.226273 -8.524607 -0.006000 -0.050724 -0.001091
29200,-0.898563 0.224753 -8.521817 -0.004909 -0.048542 -0.002727
29220,-0.897928 0.224817 -8.517445 -0.006000 -0.053451 -0.002182
29240,-0.902174 0.222237 -8.528643 -0.006000 -0.051269 -0.000545
29260,-0.902599 0.224349 -8.507137 -0.005454 -0.047997 -0.000545
29280,-0.902642 0.228655 -8.530845 -0.009272 -0.052360 -0.002182
29300,-0.902646 0.222190 -8.524381 -0.006545 -0.051814 0.000545
29320,-0.898336 0.216156 -8.539034 -0.004909 -0.050724 -0.000545
29340,-0.908680 0.223741 -8.540068 -0.004363 -0.048542 -0.001636
29360,-0.894630 0.218682 -8.542973 -0.007090 -0.049633 -0.000545
29380,-0.901845 0.222270 -8.519991 -0.004909 -0.049087 0.000545
29400,-0.902566 0.237282 -8.524372 -0.006545 -0.049633 -0.000545
29420,-0.906948 0.223915 -8.529120 -0.006000 -0.053451 -0.001091
29440,-0.900922 0.218053 -8.556531 -0.006545 -0.051269 0.000000
29460,-0.898164 0.229103 -8.541171 -0.004363 -0.048542 0.000000
29480,-0.902198 0.222235 -8.520026 -0.004909 -0.045269 -0.000545
29500,-0.900447 0.222410 -8.526316 -0.005454 -0.048542 -0.002182
29520,-0.891652 0.225444 -8.523281 -0.006000 -0.049087 -0.000545
29540,-0.910166 0.232212 -8.522978 -0.009817 -0.051814 -0.001091
29560,-0.901243 0.224485 -8.524240 -0.004363 -0.046906 -0.001091
29580,-0.904661 0.224143 -8.539666 -0.006545 -0.051269 0.000545
29600,-0.902848 0.224325 -8.509316 -0.004909 -0.049633 0.000000
29620,-0.902666 0.217878 -8.507144 -0.007090 -0.052905 -0.002182
29640,-0.898339 0.218311 -8.543344 -0.013635 -0.055087 -0.000545
29660,-0.904370 0.228482 -8.546102 -0.006545 -0.050724 -0.001636
29680,-0.909283 0.223681 -8.561677 -0.008727 -0.052905 -0.001091
29700,-0.907620 0.223847 -8.576594 -0.007090 -0.050724 -0.002182
29720,-0.905298 0.224079 -8.556969 -0.004363 -0.049087 -0.000545
29740,-0.896447 0.224965 -8.547464 -0.006545 -0.050724 -0.001091
29760,-0.899871 0.233242 -8.513329 -0.006000 -0.047997 0.000000
29780,-0.895904 0.231483 -8.519397 -0.004363 -0.049087 -0.001636
29800,-0.895507 0.235833 -8.508583 -0.004363 -0.049087 0.000545
29820,-0.897623 0.220537 -8.523878 -0.008727 -0.051814 -0.000545
29840,-0.904299 0.222025 -8.541784 -0.007636 -0.052905 0.001636
29860,-0.904966 0.215493 -8.535387 -0.007090 -0.052360 0.000000
29880,-0.894259 0.231648 -8.521387 -0.004909 -0.049087 -0.001091
29900,-0.897498 0.220550 -8.523866 -0.006000 -0.050178 -0.001636
29920,-0.902131 0.228706 -8.537258 -0.008181 -0.049633 -0.001636
29940,-0.887511 0.223703 -8.540106 -0.003818 -0.047997 -0.002182
29960,-0.905442 0.226220 -8.526815 -0.001636 -0.046906 -0.001091
29980,-0.894306 0.229488 -8.536476 -0.007090 -0.047997 -0.001636
30000,-0.891038 0.229815 -8.523220 -0.008727 -0.054542 -0.003272
30020,-0.910105 0.230063 -8.540211 -0.008181 -0.051814 0.000000
30040,-0.894773 0.220822 -8.523593 -0.007090 -0.051269 -0.001636
30060,-0.895394 0.218605 -8.530120 -0.007636 -0.047997 -0.001091
30080,-0.899766 0.228942 -8.515473 -0.006545 -0.050724 -0.000545
30100,-0.902358 0.220064 -8.498493 -0.010363 -0.053451 0.000000
30120,-0.902617 0.222193 -8.520068 -0.006545 -0.048542 -0.001636
30140,-0.902643 0.230810 -8.520070 -0.002727 -0.049633 -0.002727
30160,-0.904801 0.224129 -8.535370 -0.009272 -0.053996 -0.001091
30180,-0.898552 0.224754 -8.532591 -0.007090 -0.050724 0.001091
30200,-0.904392 0.217706 -8.526710 -0.008727 -0.048542 0.000545
30220,-0.900666 0.224543 -8.545732 -0.008181 -0.051269 -0.001091
30240,-0.900293 0.224580 -8.524145 -0.007636 -0.052360 0.000000
30260,-0.898101 0.229109 -8.515306 -0.005454 -0.047997 0.000000
30280,-0.902192 0.222235 -8.513561 -0.006000 -0.049633 0.000000
30300,-0.900446 0.218100 -8.522006 -0.006545 -0.050724 -0.000545
30320,-0.900271 0.231047 -8.547847 -0.009817 -0.053451 -0.000545
30340,-0.904564 0.239237 -8.539657 -0.006000 -0.048542 0.000000
30360,-0.913612 0.225403 -8.538406 -0.004909 -0.049633 -0.001636
30380,-0.905898 0.219710 -8.535480 -0.005454 -0.048542 -0.002182
30400,-0.907281 0.223881 -8.531308 -0.010363 -0.052905 -0.000545
30420,-0.900955 0.220204 -8.543605 -0.004909 -0.048542 -0.001091
30440,-0.902477 0.220052 -8.554532 -0.007090 -0.053451 -0.001091
30460,-0.898320 0.222623 -8.534722 -0.008727 -0.049633 -0.001636
30480,-0.908678 0.221587 -8.552997 -0.006545 -0.049087 0.000545
30500,-0.896785 0.224931 -8.528104 -0.005454 -0.047451 -0.001636
30520,-0.889131 0.223541 -8.512255 -0.010363 -0.048542 -0.002727
30540,-0.905604 0.221894 -8.526832 -0.005454 -0.051269 0.000545
30560,-0.900787 0.220221 -8.534969 -0.009817 -0.053996 0.001091
30580,-0.908925 0.217252 -8.540092 -0.004363 -0.049087 -0.001091
30600,-0.898964 0.224713 -8.519703 -0.004909 -0.049633 -0.003272
30620,-0.900123 0.224597 -8.515509 -0.007636 -0.046360 0.000545
30640,-0.900239 0.213811 -8.539224 -0.004909 -0.050178 -0.000545
30660,-0.904560 0.213379 -8.531036 -0.004363 -0.047451 -0.002727
30680,-0.902838 0.226480 -8.530865 -0.005454 -0.049633 0.000000
30700,-0.906975 0.230376 -8.509729 -0.008181 -0.050724 0.000545
30720,-0.900924 0.237446 -8.506969 -0.006545 -0.051269 -0.002182
30740,-0.900319 0.224577 -8.539232 -0.003272 -0.046360 -0.001636
30760,-0.887330 0.236651 -8.525003 -0.007636 -0.051269 0.000545
30780,-0.905424 0.217602 -8.526814 -0.009272 -0.053451 -0.001636
30800,-0.909389 0.212896 -8.512126 -0.008181 -0.053996 0.001091
30820,-0.914095 0.218890 -8.516906 -0.006545 -0.049087 0.000545
30840,-0.901636 0.215826 -8.537209 -0.003272 -0.045815 0.001091
30860,-0.889616 0.225648 -8.518767 -0.001091 -0.047997 0.000000
30880,-0.905653 0.228354 -8.535456 -0.007636 -0.051814 -0.000545
30900,-0.900792 0.233150 -8.511266 -0.007636 -0.049633 -0.000545
30920,-0.900306 0.224579 -8.515527 -0.003272 -0.049633 -0.000545
30940,-0.902412 0.228678 -8.517893 -0.005454 -0.047451 -0.001091
30960,-0.896158 0.229303 -8.504338 -0.006000 -0.050178 -0.001636
30980,-0.910617 0.232167 -8.523023 -0.005454 -0.049633 0.000545
31000,-0.903443 0.217800 -8.543854 -0.007636 -0.053996 0.001091
31020,-0.896261 0.220673 -8.530207 -0.010363 -0.052360 -0.001636
31040,-0.904163 0.226348 -8.530996 -0.003818 -0.046906 -0.000545
31060,-0.894178 0.218727 -8.525688 -0.009272 -0.051814 -0.000545
31080,-0.919038 0.224860 -8.534639 -0.005454 -0.048542 -0.000545
31100,-0.887047 0.225905 -8.529285 -0.005454 -0.050178 -0.002182
31120,-0.901086 0.228810 -8.539309 -0.005454 -0.047451 -0.001091
31140,-0.898181 0.231256 -8.554102 -0.004909 -0.050178 -0.000545
31160,-0.906509 0.232578 -8.494598 -0.008181 -0.047997 -0.001091
31180,-0.896568 0.224953 -8.515153 -0.007090 -0.053451 -0.001636
31200,-0.897729 0.220527 -8.517425 -0.005454 -0.053451 0.000000
31220,-0.897845 0.239909 -8.513126 -0.007636 -0.050724 -0.000545
31240,-0.904321 0.228487 -8.531013 -0.007636 -0.053451 0.000545
31260,-0.898504 0.226914 -8.539050 -0.008181 -0.050724 0.000545
31280,-0.910851 0.214905 -8.518737 -0.004363 -0.050724 -0.002182
31300,-0.901312 0.213704 -8.524247 -0.007090 -0.050178 -0.000545
31320,-0.911132 0.208412 -8.538158 -0.005454 -0.047451 -0.001091
31340,-0.899185 0.226846 -8.539119 -0.007090 -0.050724 0.000000
31360,-0.902300 0.215760 -8.541585 -0.007090 -0.052905 0.000545
31380,-0.898302 0.216160 -8.515326 -0.007090 -0.051814 0.000545
31400,-0.906522 0.221802 -8.522614 -0.006545 -0.049633 -0.001091
31420,-0.903034 0.228616 -8.537349 -0.008727 -0.048542 -0.001091
31440,-0.894066 0.225203 -8.512748 -0.007090 -0.050724 -0.001091
31460,-0.895324 0.218612 -8.540887 -0.004909 -0.049633 0.000000
31480,-0.901914 0.235192 -8.524307 -0.005454 -0.052360 0.000000
31500,-0.909038 0.219396 -8.544414 -0.007090 -0.053996 -0.001091
31520,-0.903285 0.213507 -8.522289 -0.009272 -0.053451 -0.001091
31540,-0.896246 0.222830 -8.540979 -0.009272 -0.052360 -0.002727
31560,-0.893387 0.223116 -8.529920 -0.004363 -0.050178 0.000000
31580,-0.897411 0.235643 -8.508773 -0.004909 -0.050724 -0.001091
31600,-0.904278 0.219872 -8.524544 -0.005454 -0.049633 0.000545
31620,-0.896345 0.233594 -8.502202 -0.008181 -0.052360 0.000000
31640,-0.889087 0.236475 -8.523025 -0.007090 -0.050724 -0.001636
31660,-0.903445 0.230729 -8.522305 -0.010908 -0.051814 -0.000545
31680,-0.907036 0.228215 -8.529129 -0.006545 -0.049087 -0.001091
31700,-0.900930 0.226671 -8.532828 -0.006545 -0.049087 -0.002182
31720,-0.898165 0.220483 -8.528242 -0.008727 -0.051269 -0.001091
31740,-0.893579 0.227406 -8.536403 -0.008181 -0.052360 -0.001091
31760,-0.899585 0.213877 -8.526229 -0.005454 -0.047451 0.000000
31780,-0.895876 0.214247 -8.534478 -0.007090 -0.049087 -0.000545
31800,-0.895505 0.227214 -8.471950 -0.006545 -0.050178 0.000000
31820,-0.897622 0.235621 -8.498020 -0.007636 -0.049633 -0.000545
31840,-0.899989 0.228920 -8.511186 -0.006545 -0.050178 -0.001091
31860,-0.908845 0.225880 -8.516381 -0.006545 -0.047997 0.000000
31880,-0.892492 0.225360 -8.519055 -0.003272 -0.046360 -0.001091
31900,-0.893011 0.220998 -8.544966 -0.007090 -0.051814 -0.001636
31920,-0.901683 0.222286 -8.552298 -0.006000 -0.049087 -0.000545
31940,-0.891776 0.214657 -8.512519 -0.005454 -0.047997 0.001636
31960,-0.897249 0.227039 -8.510912 -0.007090 -0.052360 -0.000545
31980,-0.906416 0.223968 -8.522603 -0.009272 -0.051814 0.000000
32000,-0.913798 0.236159 -8.523341 -0.004363 -0.045269 -0.001636
32020,-0.910226 0.225742 -8.535913 -0.005454 -0.050178 -0.001091
32040,-0.899095 0.218235 -8.517561 -0.004363 -0.047451 0.000545
32060,-0.902291 0.220071 -8.526500 -0.004909 -0.049087 0.000000
32080,-0.902611 0.222193 -8.520067 -0.008181 -0.051269 -0.000545
32100,-0.896178 0.214217 -8.553902 -0.011454 -0.052905 -0.001636
32120,-0.893380 0.223116 -8.527763 -0.004909 -0.052360 -0.001636
32140,-0.893100 0.233919 -8.527736 -0.011454 -0.055087 -0.000545
32160,-0.901692 0.222285 -8.530749 -0.003272 -0.050724 -0.001091
32180,-0.900396 0.224570 -8.513381 -0.006000 -0.047997 -0.000545
32200,-0.898112 0.220488 -8.513153 -0.006000 -0.046906 -0.002182
32220,-0.897883 0.220511 -8.523904 -0.006545 -0.049087 0.000000
32240,-0.912944 0.212541 -8.534030 -0.008727 -0.048542 0.001091
32260,-0.907986 0.219501 -8.535688 -0.006545 -0.049087 -0.001636
32280,-0.901025 0.220197 -8.526373 -0.003818 -0.047997 -0.001636
32300,-0.906794 0.223930 -8.550653 -0.008181 -0.050178 -0.000545
32320,-0.903061 0.222148 -8.526577 -0.006545 -0.052360 -0.000545
32340,-0.902688 0.222186 -8.526540 -0.004909 -0.050724 -0.001091
32360,-0.900496 0.215940 -8.539249 -0.005454 -0.051814 -0.000545
32380,-0.895967 0.229322 -8.530177 -0.008727 -0.052360 -0.001636
32400,-0.895514 0.235832 -8.512893 -0.007636 -0.047997 0.000000
32420,-0.899778 0.218167 -8.532713 -0.004363 -0.049087 -0.000545
32440,-0.889430 0.229976 -8.548917 -0.008727 -0.051814 -0.001091
32460,-0.899170 0.222537 -8.534807 -0.004909 -0.049087 -0.000545
32480,-0.893679 0.220932 -8.527794 -0.008727 -0.051269 -0.000545
32500,-0.893130 0.229606 -8.532048 -0.004909 -0.046360 0.000000
32520,-0.893075 0.233921 -8.514804 -0.008727 -0.050724 -0.000545
32540,-0.899534 0.222501 -8.521914 -0.005454 -0.049633 0.000545
32560,-0.898025 0.214033 -8.532537 -0.009272 -0.052905 -0.002182
32580,-0.904339 0.222021 -8.520240 -0.005454 -0.051814 -0.000545
32600,-0.902816 0.228638 -8.517933 -0.003818 -0.046360 -0.001091
32620,-0.889734 0.212707 -8.548947 0.000000 -0.045269 -0.001636
32640,-0.905665 0.211114 -8.533301 -0.004909 -0.049087 -0.000545
32660,-0.900793 0.218065 -8.539279 -0.004909 -0.049087 -0.001091
32680,-0.906771 0.221777 -8.537723 -0.004363 -0.047451 0.000000
32700,-0.898749 0.218270 -8.532610 -0.007090 -0.049633 -0.000545
32720,-0.900102 0.215980 -8.545674 -0.007636 -0.051814 -0.001636
32740,-0.904547 0.215535 -8.537499 -0.007636 -0.051814 -0.000545
32760,-0.896372 0.212043 -8.519444 -0.006000 -0.047451 0.000000
32780,-0.891245 0.229795 -8.514621 -0.006000 -0.051814 0.000545
32800,-0.899351 0.226829 -8.508967 -0.008727 -0.051269 0.000000
32820,-0.904472 0.228472 -8.531028 -0.005454 -0.050178 0.000545
32840,-0.902829 0.222172 -8.520089 -0.011454 -0.052905 0.000545
32860,-0.900510 0.215939 -8.534941 -0.009817 -0.052905 0.000000
32880,-0.908897 0.210790 -8.520696 -0.004909 -0.051269 0.000545
32900,-0.911891 0.214801 -8.542543 -0.002182 -0.043633 -0.001091
32920,-0.901416 0.220158 -8.543652 -0.003818 -0.044724 0.000000
32940,-0.891749 0.221125 -8.518981 -0.007090 -0.049633 0.000545
32960,-0.897247 0.227040 -8.538924 -0.009817 -0.055087 -0.001091
32980,-0.897797 0.233449 -8.536825 -0.003272 -0.046906 0.000000
33000,-0.891387 0.219006 -8.534029 -0.005454 -0.049087 -0.002727
33020,-0.905830 0.221871 -8.533319 -0.006545 -0.047997 -0.001091
33040,-0.902965 0.215693 -8.515793 -0.006545 -0.050178 -0.000545
33060,-0.894059 0.216584 -8.506283 -0.002182 -0.048542 -0.001091
33080,-0.899633 0.226801 -8.565022 -0.006545 -0.051269 -0.000545
33100,-0.900190 0.224590 -8.549994 -0.003818 -0.048542 0.000545
33120,-0.889471 0.229972 -8.507979 -0.007090 -0.049087 0.000545
33140,-0.901329 0.237406 -8.526403 -0.009272 -0.052905 0.000000
33160,-0.893895 0.220910 -8.532125 -0.008181 -0.053996 0.000000
33180,-0.899616 0.224648 -8.517613 -0.009272 -0.051269 -0.001091
33200,-0.900188 0.226745 -8.524135 -0.003272 -0.051269 -0.000545
33220,-0.902400 0.215750 -8.532975 -0.004363 -0.047451 -0.001091
33240,-0.902622 0.217883 -8.526533 -0.010363 -0.053451 -0.001091
33260,-0.887560 0.232318 -8.533647 -0.003818 -0.051269 0.000000
33280,-0.894673 0.227297 -8.521428 -0.007090 -0.053996 0.000000
33300,-0.897539 0.220546 -8.523870 -0.004363 -0.050724 -0.001636
33320,-0.902136 0.220086 -8.522175 -0.007090 -0.052360 0.000000
33340,-0.900440 0.215946 -8.537089 -0.006545 -0.049087 -0.001636
33360,-0.900271 0.226737 -8.509059 -0.008181 -0.053451 -0.002182
33380,-0.889480 0.223507 -8.510135 -0.008727 -0.051269 -0.001091
33400,-0.905639 0.219736 -8.516061 -0.008181 -0.048542 -0.001636
33420,-0.894326 0.225177 -8.525703 -0.003818 -0.050724 0.000000
33440,-0.897505 0.229169 -8.517402 -0.006545 -0.046906 0.000000
33460,-0.899977 0.233231 -8.524114 -0.005454 -0.046906 -0.001091
33480,-0.895915 0.229328 -8.515088 -0.004363 -0.047997 0.000545
33500,-0.895509 0.227213 -8.527976 -0.004909 -0.051814 0.000000
33520,-0.906242 0.223985 -8.516121 -0.003818 -0.049087 0.001091
33540,-0.903006 0.224309 -8.526571 -0.007090 -0.048542 -0.001636
33560,-0.885443 0.223910 -8.526970 -0.007090 -0.048542 0.000000
33580,-0.898771 0.216113 -8.536922 -0.004909 -0.048542 0.001091
33600,-0.882865 0.219858 -8.537486 -0.005454 -0.048542 -0.001636
33620,-0.887739 0.225835 -8.522890 -0.006545 -0.049087 0.000545
33640,-0.890381 0.234191 -8.514535 -0.004363 -0.050178 -0.001091
33660,-0.901420 0.224467 -8.522103 -0.003818 -0.046360 0.000545
33680,-0.906833 0.230391 -8.522644 -0.006000 -0.050178 0.000000
33700,-0.900910 0.215899 -8.539291 -0.008181 -0.049633 0.000545
33720,-0.896008 0.231473 -8.515098 -0.006545 -0.050724 0.000545
33740,-0.906292 0.234754 -8.518281 -0.004909 -0.049087 0.000000
33760,-0.898701 0.224739 -8.526141 -0.009817 -0.051814 0.000000
33780,-0.891477 0.223307 -8.525418 -0.005454 -0.050724 0.000000
33800,-0.892910 0.236093 -8.516942 -0.008181 -0.052360 -0.002182
33820,-0.893053 0.223149 -8.540660 -0.008727 -0.050724 -0.001636
33840,-0.893068 0.208064 -8.540662 -0.006000 -0.049633 -0.000545
33860,-0.905998 0.226164 -8.554884 -0.004363 -0.045269 0.000000
33880,-0.887897 0.225820 -8.546609 -0.005454 -0.051814 -0.000545
33900,-0.907636 0.228155 -8.548583 -0.009272 -0.055632 -0.000545
33920,-0.913920 0.212443 -8.531973 -0.008181 -0.050178 -0.003272
33940,-0.908083 0.223801 -8.537853 -0.002727 -0.041997 -0.001636
33960,-0.896725 0.227092 -8.525944 -0.005454 -0.049087 -0.001636
33980,-0.899899 0.224619 -8.543500 -0.004363 -0.049087 -0.001091
34000,-0.900217 0.218123 -8.517673 -0.002727 -0.047997 -0.001091
34020,-0.893784 0.229541 -8.519184 -0.002727 -0.048542 0.000545
34040,-0.901760 0.211504 -8.526446 -0.005454 -0.046906 0.000545
34060,-0.902558 0.226508 -8.520061 -0.005454 -0.052360 0.000545
34080,-0.898328 0.214002 -8.530414 -0.006000 -0.050178 -0.000545
34100,-0.900060 0.220294 -8.549980 -0.001636 -0.041452 0.000000
34120,-0.900233 0.231051 -8.519830 -0.014726 -0.055087 0.000000
34140,-0.891631 0.229756 -8.523279 -0.009817 -0.053451 0.000545
34160,-0.892925 0.225317 -8.523409 -0.008181 -0.055632 -0.000545
34180,-0.890900 0.231984 -8.523206 -0.007636 -0.052360 -0.000545
34200,-0.899317 0.222523 -8.511119 -0.005454 -0.050178 -0.001636
34220,-0.908778 0.228041 -8.492671 -0.006000 -0.054542 0.001091
34240,-0.901105 0.222344 -8.511297 -0.004363 -0.047997 -0.002182
34260,-0.902492 0.222205 -8.504972 -0.007090 -0.052905 0.000545
34280,-0.898321 0.229087 -8.517484 -0.006000 -0.049087 0.001091
34300,-0.895749 0.222880 -8.523691 -0.004363 -0.048542 0.000545
34320,-0.895492 0.222905 -8.521510 -0.002727 -0.049087 -0.002182
34340,-0.908395 0.215150 -8.544349 -0.004909 -0.050724 -0.001091
34360,-0.896757 0.222779 -8.536720 -0.004909 -0.051814 -0.001636
34380,-0.895593 0.229360 -8.521521 -0.008727 -0.051269 -0.000545
34400,-0.904096 0.230664 -8.513751 -0.003272 -0.050724 0.000545
34420,-0.900636 0.231010 -8.539264 -0.003818 -0.047997 -0.000545
34440,-0.906755 0.228244 -8.533411 -0.004909 -0.046360 -0.000545
34460,-0.887973 0.212883 -8.516449 -0.012545 -0.055087 -0.001636
34480,-0.899024 0.218242 -8.545567 -0.010363 -0.055087 0.000000
34500,-0.882890 0.226320 -8.526714 -0.006545 -0.050178 -0.001091
34520,-0.909290 0.219371 -8.531509 -0.009272 -0.052360 -0.001091
34540,-0.894691 0.220830 -8.536514 -0.007090 -0.051814 -0.000545
34560,-0.899696 0.226795 -8.511156 -0.006000 -0.051814 -0.000545
34580,-0.898041 0.220495 -8.526075 -0.004363 -0.047997 -0.000545
34600,-0.906496 0.217495 -8.522611 -0.006545 -0.047997 -0.000545
34620,-0.896567 0.209869 -8.538857 -0.007636 -0.051269 -0.001636
34640,-0.891264 0.223328 -8.527552 -0.004909 -0.050724 -0.001636
34660,-0.901508 0.230923 -8.530731 -0.004909 -0.045269 0.000000
34680,-0.904687 0.215521 -8.554752 -0.002727 -0.049087 -0.001091
34700,-0.894231 0.212257 -8.527848 -0.006545 -0.047997 -0.001091
34720,-0.899650 0.226799 -8.539165 -0.008181 -0.053996 -0.001636
34740,-0.891572 0.223297 -8.518964 -0.006545 -0.054542 -0.002182
34760,-0.903694 0.219930 -8.539569 -0.005454 -0.051269 0.000000
34780,-0.904906 0.221964 -8.526761 -0.003272 -0.050724 -0.001636
34800,-0.898562 0.224753 -8.515352 -0.006545 -0.051814 -0.002727
34820,-0.902238 0.224386 -8.522184 -0.003272 -0.046360 -0.000545
34840,-0.904760 0.215514 -8.518127 -0.004363 -0.046360 0.000000
34860,-0.892083 0.223246 -8.527634 -0.002727 -0.045269 -0.001091
34880,-0.892971 0.221003 -8.525568 -0.007090 -0.047997 -0.002182
34900,-0.893059 0.225303 -8.523422 -0.007090 -0.049633 -0.001636
34920,-0.905997 0.219700 -8.544109 -0.005454 -0.049633 -0.001636
34940,-0.909446 0.223665 -8.546609 -0.002182 -0.045269 0.001091
34960,-0.888242 0.243024 -8.505701 -0.005454 -0.052360 -0.000545
34980,-0.894741 0.227290 -8.540829 -0.008181 -0.049633 0.001636
35000,-0.899701 0.218175 -8.526241 -0.004909 -0.049633 0.000000
35020,-0.900197 0.228899 -8.543530 -0.007090 -0.050178 -0.001091
35040,-0.893782 0.229541 -8.534268 -0.006545 -0.053451 -0.001636
35060,-0.912534 0.225511 -8.525370 -0.006545 -0.050178 -0.002727
35080,-0.892861 0.223168 -8.508318 -0.009817 -0.054542 0.000545
35100,-0.910287 0.227890 -8.516525 -0.010908 -0.053996 0.001636
35120,-0.892636 0.225346 -8.538464 -0.008181 -0.050724 0.000000
35140,-0.890871 0.214748 -8.546906 -0.003818 -0.046906 -0.002182
35160,-0.899314 0.231143 -8.513273 -0.004909 -0.050178 -0.000545
35180,-0.893694 0.231705 -8.538569 -0.008181 -0.054542 0.001091
35200,-0.893132 0.233916 -8.532048 -0.007090 -0.047997 -0.000545
35220,-0.897385 0.229181 -8.519545 -0.007636 -0.050178 -0.000545
35240,-0.908585 0.232370 -8.529284 -0.003818 -0.047451 -0.002182
35260,-0.905395 0.217605 -8.518190 -0.008727 -0.053996 -0.000545
35280,-0.911541 0.225610 -8.542509 -0.007636 -0.053996 -0.000545
35300,-0.897071 0.229212 -8.549682 -0.008727 -0.052905 0.000000
35320,-0.899934 0.220306 -8.556432 -0.002727 -0.047451 -0.002182
35340,-0.891601 0.236224 -8.551290 -0.001636 -0.047451 -0.000545
35360,-0.879993 0.224455 -8.535045 -0.004909 -0.054542 -0.000545
35380,-0.900381 0.224571 -8.528463 -0.003818 -0.051814 0.000545
35400,-0.895955 0.233633 -8.538795 -0.004363 -0.047451 -0.000545
35420,-0.910597 0.223550 -8.518711 -0.003818 -0.053451 0.000000
35440,-0.909906 0.212844 -8.531571 -0.006545 -0.051814 -0.000545
35460,-0.896908 0.218454 -8.528116 -0.004363 -0.048542 0.000545
35480,-0.891298 0.225480 -8.525400 -0.008727 -0.054542 -0.001091
35500,-0.899357 0.224674 -8.517587 -0.006000 -0.051269 -0.002727
35520,-0.895853 0.229334 -8.517237 -0.007090 -0.051814 -0.000545
35540,-0.899812 0.226783 -8.539181 -0.006000 -0.047997 -0.001091
35560,-0.895898 0.231484 -8.551719 -0.008181 -0.051269 -0.002182
35580,-0.901971 0.220102 -8.541552 -0.004363 -0.051814 -0.000545
35600,-0.889650 0.232109 -8.527390 -0.004909 -0.048542 0.000545
35620,-0.892727 0.227491 -8.536318 -0.007636 -0.052360 -0.002182
35640,-0.903809 0.222074 -8.530961 -0.007636 -0.047451 0.001091
35660,-0.904917 0.217653 -8.518143 -0.007090 -0.051269 0.001091
35680,-0.896409 0.224968 -8.523757 -0.007636 -0.051269 0.000000
35700,-0.899868 0.216003 -8.552115 -0.009272 -0.052905 0.000545
35720,-0.900214 0.218123 -8.539221 -0.005454 -0.050178 0.000545
35740,-0.900248 0.228894 -8.519831 -0.007636 -0.051814 -0.000545
35760,-0.898097 0.231264 -8.536855 -0.005454 -0.050724 0.000000
35780,-0.900036 0.237535 -8.504725 -0.004909 -0.052360 0.000000
35800,-0.902385 0.235145 -8.515735 -0.009272 -0.052905 0.000545
35820,-0.902620 0.220038 -8.526533 -0.002727 -0.050724 -0.002727
35840,-0.904799 0.219820 -8.541835 -0.002182 -0.049633 -0.002182
35860,-0.894242 0.229495 -8.536469 -0.003272 -0.046906 -0.002182
35880,-0.897496 0.224860 -8.510937 -0.006000 -0.050724 -0.001091
35900,-0.904286 0.222026 -8.537474 -0.009817 -0.055632 -0.001636
35920,-0.896346 0.227130 -8.543144 -0.007090 -0.052905 -0.000545
35940,-0.897707 0.224839 -8.513112 -0.004909 -0.050178 -0.001636
35960,-0.908617 0.230212 -8.516358 -0.004909 -0.049087 -0.001636
35980,-0.909708 0.232258 -8.542326 -0.010908 -0.052905 0.000545
36000,-0.899043 0.220395 -8.521865 -0.004363 -0.047451 -0.000545
36020,-0.902286 0.222226 -8.548048 -0.009272 -0.051814 -0.001636
36040,-0.898301 0.229089 -8.528255 -0.007090 -0.049087 -0.000545
36060,-0.893592 0.220940 -8.508391 -0.007636 -0.051269 0.001091
36080,-0.906051 0.219695 -8.518256 -0.008181 -0.050178 -0.001091
36100,-0.896522 0.224957 -8.521613 -0.003272 -0.046906 -0.000545
36120,-0.906344 0.223975 -8.524751 -0.004909 -0.048542 -0.001091
36140,-0.898706 0.231203 -8.519677 -0.004363 -0.046906 -0.000545
36160,-0.900097 0.222445 -8.526280 -0.009272 -0.047997 0.000000
36180,-0.891617 0.216828 -8.542671 -0.004909 -0.047451 -0.000545
36200,-0.899388 0.222516 -8.519745 -0.008727 -0.050724 -0.000545
36220,-0.895856 0.222869 -8.510773 -0.008181 -0.051269 0.000000
36240,-0.899812 0.216009 -8.547801 -0.008727 -0.052360 0.000545
36260,-0.900208 0.218124 -8.534911 -0.006545 -0.052905 0.000545
36280,-0.902402 0.224369 -8.530821 -0.007090 -0.052905 -0.001636
36300,-0.894002 0.225209 -8.514896 -0.009817 -0.047451 0.000000
36320,-0.903937 0.219906 -8.515890 -0.008727 -0.050724 -0.001091
36340,-0.900620 0.222392 -8.515558 -0.003818 -0.046360 -0.000545
36360,-0.898134 0.231261 -8.528239 0.000000 -0.046906 0.000000
36380,-0.889266 0.223528 -8.529507 -0.006000 -0.049087 -0.001636
36400,-0.896999 0.233529 -8.506577 -0.003272 -0.045269 -0.002182
36420,-0.897772 0.233452 -8.543287 -0.006545 -0.047997 0.000000
36440,-0.897849 0.229134 -8.523901 -0.003272 -0.046360 -0.000545
36460,-0.900012 0.218144 -8.521962 -0.003272 -0.051814 0.000000
36480,-0.904538 0.222001 -8.515950 -0.006000 -0.046360 -0.001636
36500,-0.900681 0.224541 -8.519875 -0.007636 -0.046906 0.000000
36520,-0.895985 0.220701 -8.502166 -0.008181 -0.053996 0.000545
36540,-0.906290 0.208896 -8.544139 -0.008181 -0.050178 -0.001091
36560,-0.898701 0.231204 -8.513211 -0.004909 -0.050724 -0.000545
36580,-0.908716 0.221583 -8.540071 -0.003818 -0.049087 -0.001636
36600,-0.898944 0.231180 -8.541249 -0.001636 -0.045815 -0.000545
36620,-0.906586 0.219641 -8.533394 -0.004909 -0.051269 0.000000
36640,-0.911660 0.232063 -8.540366 -0.009272 -0.054542 0.000000
36660,-0.899238 0.226840 -8.513266 -0.006545 -0.053996 0.000000
36680,-0.910925 0.214897 -8.538137 -0.006000 -0.051269 -0.001636
